File: Data/ITRAX/HER42PB/Output/itraxR/HER42PB_xrf_filter.csv
"depth","label","MSE","cps","kcps","Cl","K","Ca","Ti","Mn","Fe","Co","Ni","Br","Rb","Sr","Zr","Mo_inc","Mo_coh"
11,"A",1.31,49880,18181,122,82,335,179,152,8205,100,207,3291,165,685,595,29836,5132
19,"A",1.27,47641,16936,101,86,418,136,142,7329,151,162,3545,190,900,726,27964,4911
27,"A",1.34,53809,19345,113,70,446,156,151,8325,149,213,4293,203,772,641,31709,5397
35,"A",1.41,54212,19387,136,79,443,178,130,8394,119,170,4167,0,778,796,32054,5692
43,"A",1.5,48531,17772,124,103,509,151,176,6932,0,149,3433,142,710,891,29690,4839
51,"A",1.42,52255,17952,138,133,629,193,186,11504,202,157,3494,131,980,803,27188,5261
59,"A",1.53,54240,19011,146,92,499,112,178,10967,81,156,4162,243,798,633,29507,5579
67,"A",1.38,56427,19716,140,98,559,148,128,11410,147,199,4220,60,724,662,31216,5516
75,"A",1.55,58875,19717,165,67,422,313,160,16317,116,166,3958,207,811,558,29498,5208
83,"A",1.49,66261,19462,163,113,420,218,175,26542,187,199,3332,64,964,595,27149,5232
91,"A",1.38,68753,20712,176,107,647,226,218,27070,58,155,3720,184,797,660,28721,5130
99,"A",1.4,52259,19653,161,47,328,87,92,9288,150,176,3305,115,963,601,30632,5324
107,"A",1.35,58855,20048,180,86,434,206,96,15743,205,176,3429,122,658,695,30349,5489
115,"A",1.43,65446,20422,149,99,733,197,104,21639,183,166,3204,275,1140,1305,29960,5478
123,"A",1.23,71324,21551,124,84,472,160,87,26188,256,164,3127,236,884,800,32036,5477
131,"A",1.35,61558,20070,154,103,541,218,134,18250,261,128,3021,100,1001,794,30020,5663
139,"A",1.38,60508,19523,150,163,857,333,204,18862,216,202,2731,183,1106,474,28684,5300
147,"A",1.72,52366,18453,114,105,406,159,141,10476,430,156,2423,87,906,674,29642,5640
155,"A",1.37,48567,18519,121,49,356,80,105,6303,168,191,2667,63,796,840,30479,5503
163,"A",1.28,49025,18402,101,73,554,227,137,6432,154,158,2566,120,899,660,30417,5390
171,"A",1.47,45525,18144,143,47,305,95,57,3866,80,102,2324,100,841,907,30059,5341
179,"A",1.16,46380,18164,113,44,329,73,89,3736,126,263,2098,143,861,787,31091,5517
187,"A",1.46,47711,17837,112,79,570,181,153,7021,170,150,2286,84,1064,749,28678,5337
195,"A",1.43,44104,16942,85,109,324,96,90,4796,119,120,2052,193,862,618,28347,5149
203,"A",1.24,43274,16390,112,48,343,135,82,5057,119,166,2140,27,859,532,27543,4969
211,"A",1.34,45001,16875,126,48,310,110,88,6678,194,150,1995,194,1071,609,26953,5091
219,"A",1.42,50521,18219,153,89,485,158,122,8611,153,210,2496,145,806,798,29579,5483
227,"A",1.25,46338,17395,120,89,407,154,171,5882,132,173,1861,187,1033,746,28643,5402
235,"A",1.25,48785,18384,149,102,454,174,122,6553,163,207,1944,127,953,610,30358,5615
243,"A",1.34,47419,18068,123,83,452,175,123,6958,123,230,1682,124,985,663,29332,5454
251,"A",1.33,45804,17701,115,50,413,136,122,6165,41,177,1745,103,955,506,29062,5136
259,"A",1.36,46433,17474,110,81,460,133,120,6548,88,185,1961,84,986,742,28493,5421
267,"A",1.46,47114,17136,102,104,566,365,200,8459,0,168,1844,193,1029,772,27124,5035
275,"A",1.34,47705,17303,149,111,433,189,134,8582,44,164,1980,186,1142,705,27483,5192
283,"A",1.48,48245,17048,114,133,501,232,194,9870,106,132,1709,134,952,701,27061,5171
291,"A",1.22,48129,16927,148,96,409,190,136,11035,108,155,1745,92,994,581,26160,5249
299,"A",1.26,54414,17651,154,121,661,636,259,17237,0,152,1719,186,996,473,25737,4861
307,"A",1.25,47461,16187,116,100,394,179,174,12173,42,106,1655,13,1097,706,24582,5068
315,"A",1.29,48035,15765,116,72,485,282,157,14091,248,150,1473,142,988,665,23366,4781
323,"A",1.28,51041,16175,139,114,558,241,177,15682,170,115,1631,196,1256,707,23928,4911
331,"A",1.3,50627,15363,79,155,569,319,183,17740,172,201,1639,119,1060,542,22153,4627
339,"A",1.37,53791,16638,144,163,564,255,217,18713,158,165,1688,117,914,658,24272,4728
347,"A",1.27,48807,16473,159,72,423,178,154,13441,181,146,1674,264,1050,556,24586,5020
355,"A",1.23,47326,15948,116,100,409,195,132,13345,145,155,1650,219,999,500,23742,4720
363,"A",1.34,46890,16406,151,81,315,120,190,11235,151,102,2055,89,881,677,24765,5065
371,"A",1.28,46783,15735,101,126,1040,203,131,12732,53,186,1709,261,1260,946,22349,4698
379,"A",1.28,44576,15196,67,133,704,316,174,11052,115,113,1652,203,1243,348,22778,4700
387,"A",1.34,52198,16102,101,144,646,269,300,18055,88,121,1823,223,1510,535,22706,4691
395,"A",1.32,48099,15985,123,133,370,217,159,13572,81,100,2283,105,762,647,23830,4576
403,"A",1.21,48661,16568,168,70,390,120,141,12884,103,141,2146,34,1153,592,24664,5144
410,"B",1.39,63736,19971,171,72,428,202,123,22054,125,159,2416,17,741,745,30089,5359
414,"B",1.61,60378,19458,131,94,495,171,97,20037,131,143,2335,0,506,800,29279,5256
418,"B",1.46,60636,18775,160,193,347,364,107,21557,109,153,2242,41,735,561,27905,5180
422,"B",1.31,56076,18916,126,72,380,176,107,15196,154,128,2400,209,670,587,29578,5248
426,"B",1.23,58821,19720,167,114,605,227,140,15997,183,216,2554,103,730,534,30781,5457
430,"B",1.29,56716,19176,128,54,477,229,147,14764,156,175,2481,113,839,817,29543,5554
434,"B",1.55,55730,18804,153,69,510,267,160,14682,160,137,2433,148,736,709,29177,5327
438,"B",1.34,57562,19445,177,95,536,184,152,15909,96,183,2381,0,779,711,29571,5497
442,"B",1.23,54571,19208,143,76,368,177,144,13252,87,152,2451,118,918,868,29606,5221
446,"B",1.3,53581,18570,125,87,387,303,127,13067,99,208,2308,42,810,703,29192,5185
450,"B",1.3,53377,18506,132,88,441,294,160,12506,136,127,2434,82,832,709,29209,5288
454,"B",1.28,52970,18513,129,108,531,191,141,12146,158,206,2299,90,998,620,28731,5270
458,"B",1.29,48732,18040,158,89,472,172,125,8419,78,204,2153,132,920,571,28782,5195
462,"B",1.34,48044,17437,120,66,367,152,162,7582,72,179,2065,96,1071,710,28997,5299
466,"B",1.32,48408,18337,158,61,410,118,126,6525,57,234,2228,71,618,700,30745,5332
470,"B",1.37,49808,19023,157,109,492,113,170,6141,18,190,2198,121,843,732,31965,5533
474,"B",1.42,50034,18877,131,62,375,134,80,6401,132,104,2396,32,807,721,31999,5691
478,"B",1.3,49580,18737,157,55,396,167,103,6093,128,193,2498,94,722,586,31655,5287
482,"B",1.22,50325,19777,160,36,286,135,37,5146,48,175,2407,88,669,685,33705,5739
487,"B",1.4,53121,19713,163,85,364,169,115,7635,160,173,2682,84,681,815,33193,5691
495,"B",1.21,47318,18820,126,78,285,106,87,3354,116,239,2368,51,688,701,32507,5522
503,"B",1.28,46933,18439,134,26,360,110,52,3740,77,158,2222,122,829,772,31898,5369
511,"B",1.18,44871,17893,128,109,517,94,80,3780,71,160,2268,86,1008,612,29851,5183
519,"B",1.48,49814,19558,154,73,362,109,68,4004,62,231,2755,195,573,659,33746,5706
527,"B",1.37,48346,18312,144,73,384,114,84,5185,157,190,2355,254,785,795,31176,5463
535,"B",1.22,47716,17979,156,29,295,84,76,5739,198,204,2635,156,779,744,30091,5439
543,"B",1.28,47945,17954,167,72,415,140,109,6519,78,227,2254,173,794,685,29948,5293
551,"B",1.32,45148,17416,112,86,357,114,77,5762,24,114,2331,90,718,638,28711,5115
559,"B",1.27,45847,17069,186,57,362,113,130,7299,179,185,2227,168,951,566,27464,4995
567,"B",1.34,45917,16929,128,92,410,160,94,7026,166,205,2214,126,965,691,27401,5077
575,"B",1.42,47942,18170,138,49,380,134,108,5864,97,138,2423,99,885,651,30280,5539
583,"B",1.3,46594,17973,151,69,326,105,96,5079,62,162,2317,118,882,618,30158,5484
591,"B",1.35,50010,18718,162,75,413,174,101,6807,206,220,2397,9,666,796,31388,5701
599,"B",1.34,49827,18700,155,71,398,152,122,6646,186,176,2340,93,960,662,31391,5448
607,"B",1.2,46663,18466,133,53,289,83,69,4515,99,208,2011,60,704,785,31276,5409
615,"B",1.24,48417,18838,167,49,269,101,72,5649,135,113,2293,171,628,908,31521,5539
623,"B",1.24,47873,18532,134,34,239,75,87,4632,66,164,2131,180,734,871,31932,5574
631,"B",1.23,51120,19196,166,58,334,134,66,7160,159,168,2439,91,671,677,32066,5685
639,"B",1.29,49089,19208,164,51,224,53,68,5577,183,199,2175,0,545,753,32473,5553
647,"B",1.29,49975,18797,103,51,395,173,128,7661,77,192,2311,4,605,635,31428,5205
655,"B",1.29,47324,17428,164,76,359,128,123,7811,136,241,1985,94,844,564,28256,5377
663,"B",1.32,48656,18175,166,45,321,126,84,5627,140,203,2511,196,745,770,31083,5533
671,"B",1.46,46867,17490,137,52,263,76,64,5677,153,170,2109,104,798,539,29831,5638
679,"B",1.45,48691,18654,154,50,241,53,45,6561,123,135,1847,179,487,643,31525,5534
687,"B",1.25,47021,17958,138,58,254,76,95,6442,117,151,1754,86,794,591,29811,5556
695,"B",1.36,46440,17928,134,54,293,140,103,6638,79,173,1873,161,624,623,29512,5064
703,"B",1.31,46352,17669,168,33,280,114,94,6262,81,144,1980,133,836,710,29156,5259
711,"B",1.36,46676,17480,151,50,320,120,130,7702,0,149,2170,18,921,727,28074,5163
719,"B",1.24,47967,18795,172,40,259,48,65,4346,71,176,2208,268,806,690,31868,5754
727,"B",1.4,48001,18214,154,60,396,137,86,5937,232,190,2484,98,796,633,30441,5163
735,"B",1.53,47192,17921,157,59,335,134,132,5747,110,180,2194,64,919,672,30092,5430
743,"B",1.31,45917,17800,141,35,323,145,94,5069,84,162,1953,48,785,940,29624,5330
751,"B",1.39,48700,17505,149,74,425,411,147,7794,164,163,2071,196,992,723,28924,5289
759,"B",1.3,46871,17874,129,85,362,113,67,6592,118,174,2144,180,832,600,29344,5053
767,"B",1.29,48013,17460,149,77,432,195,136,8168,220,130,2249,151,970,641,28393,5151
775,"B",1.3,46094,16988,143,47,369,212,111,8572,58,209,1888,92,1061,530,26708,5113
783,"B",1.16,48519,17221,108,91,434,200,114,9849,79,145,2052,177,1035,798,26899,5377
791,"B",1.4,47691,16532,137,109,559,211,150,10662,134,174,1713,161,1236,710,25294,5054
799,"B",1.25,48247,17015,165,82,396,160,121,9995,129,177,1925,250,1156,651,26579,5323
807,"B",1.32,47547,15952,126,103,704,335,224,13432,0,162,1740,54,981,566,23418,4735
812,"C",1.31,51460,17770,181,109,694,286,186,12829,173,158,2140,67,1214,694,26626,4974
816,"C",1.32,50630,17786,141,127,706,309,223,12210,54,162,2284,189,1175,468,26201,4881
820,"C",1.32,45174,15919,136,113,577,200,169,10619,166,134,1770,136,1283,487,23451,4720
824,"C",1.29,52180,16206,159,226,1147,393,411,18121,94,214,1752,175,1381,441,21663,4591
828,"C",1.24,46431,16340,121,109,649,341,140,10993,103,158,1787,152,1183,661,24126,4950
832,"C",1.27,53194,17988,163,159,881,273,191,14421,282,142,2144,208,1164,460,26459,5288
836,"C",1.36,51072,17342,128,158,745,312,186,13955,106,193,1926,173,1305,499,25330,4998
840,"C",1.34,49729,16532,145,126,704,323,227,14969,136,202,1789,175,1268,410,23179,4987
844,"C",1.38,49754,16954,184,139,706,369,188,13425,52,147,2104,200,1389,495,24029,4958
848,"C",1.38,48060,16729,156,97,477,212,126,12701,192,202,1996,179,1204,689,23925,4718
852,"C",1.25,48502,16096,158,157,844,299,209,13633,130,174,1839,279,1402,559,22871,4628
856,"C",1.28,50414,15823,118,206,891,417,315,15840,212,173,1486,237,1585,551,22180,4822
860,"C",1.45,54954,16077,185,236,1271,480,344,21494,156,97,1501,164,1540,562,20765,4901
864,"C",1.35,51619,16380,182,156,774,470,240,17164,156,113,1517,202,1572,475,22598,5045
868,"C",1.22,49762,16250,163,190,799,265,239,15361,100,183,1725,148,1187,624,22863,4853
872,"C",1.34,51946,16962,170,147,796,343,206,15358,177,137,1929,162,1061,587,24758,4899
876,"C",1.35,49178,17112,163,94,576,247,162,11969,90,181,1983,93,926,501,25936,5047
881,"C",1.32,53325,18131,140,92,565,252,135,12553,112,160,2259,363,948,677,28637,5233
889,"C",1.26,51032,18187,147,87,494,142,119,10856,69,148,2490,119,951,551,28236,5342
897,"C",1.16,50264,18999,209,74,365,147,171,7304,81,173,2642,36,675,683,31045,5352
905,"C",1.34,53442,19821,214,113,512,192,156,8984,134,204,2643,169,959,814,31458,5864
913,"C",1.36,53703,20374,188,103,392,142,129,8848,103,133,2496,113,968,584,32599,5806
921,"C",1.25,52102,19058,180,78,546,291,161,9712,175,208,2262,0,896,571,30164,5498
929,"C",1.26,51290,18914,177,93,404,173,142,7927,0,163,2378,74,710,833,31593,5276
937,"C",1.32,51926,19882,169,51,354,98,81,6613,49,206,2479,0,744,606,33713,5646
945,"C",1.32,51800,19451,149,64,351,150,107,8313,156,269,2096,81,477,604,32476,5630
953,"C",1.32,52487,19724,184,78,432,144,111,8616,93,188,2327,179,727,700,31976,5664
961,"C",1.36,51120,19187,167,47,456,198,102,6888,196,162,2359,97,926,646,31600,5900
969,"C",1.42,50655,19511,182,99,466,134,148,7217,112,189,2328,0,793,684,31899,5675
977,"C",1.33,51916,19556,164,80,403,170,157,6297,90,156,2522,229,950,1095,32801,5747
985,"C",1.35,46160,17276,129,77,483,211,142,6842,0,165,2103,0,868,690,28550,4822
993,"C",1.21,47900,17840,137,65,569,183,164,7801,51,172,1911,142,1025,530,28646,5153
1001,"C",1.58,48615,19561,163,41,252,106,60,2891,90,218,2376,82,657,710,34006,5546
1009,"C",1.35,45961,18203,176,43,365,97,90,4608,43,157,2185,97,935,643,30312,5361
1017,"C",1.18,50532,19150,135,60,442,122,113,6817,73,145,2767,171,831,541,31824,5464
1025,"C",1.34,51070,19928,214,52,279,79,69,5470,0,189,2757,12,649,790,33762,5421
1033,"C",1.32,53064,19766,217,66,454,185,138,8057,172,199,2441,149,789,772,32534,5463
1041,"C",1.23,50478,18633,163,72,451,134,135,7734,190,260,1972,142,1091,780,30085,5846
1049,"C",1.16,52920,19407,182,95,502,145,154,9208,104,219,2281,131,900,752,31761,5490
1057,"C",1.27,49951,17985,126,77,445,202,83,9503,90,176,1771,56,651,619,29763,5306
1065,"C",1.43,54935,19354,162,117,493,335,196,10624,139,216,2388,41,844,769,31989,5514
1073,"C",1.37,44398,16629,124,129,547,175,121,7345,71,226,1835,137,1074,555,26032,4950
1081,"C",1.35,47842,17927,175,72,455,193,131,6833,31,147,2503,151,941,470,29331,5386
1089,"C",1.33,49665,18288,151,101,509,207,101,7893,64,115,2534,246,1033,824,29378,5329
1097,"C",1.34,44522,16390,151,79,469,177,98,8241,67,126,2157,172,875,597,25488,4892
1105,"C",1.43,53622,17183,123,210,892,408,237,14647,48,157,2148,310,1562,515,25824,5160
1113,"C",1.44,49572,17757,137,97,718,279,140,8902,118,181,2540,67,880,480,28738,5142
1121,"C",1.34,44602,16876,124,78,584,165,95,6275,113,155,2389,18,971,486,26948,5042
1129,"C",1.43,49397,17522,112,76,392,176,131,9386,80,165,2522,75,808,488,28613,5485
1137,"C",1.33,53804,18585,163,77,531,407,145,11444,218,154,2900,16,868,611,29752,5219
1145,"C",1.27,51635,18483,124,101,484,216,99,9801,163,151,2750,207,763,707,29353,5556
1153,"C",1.47,52968,17926,123,80,505,198,137,13841,117,164,2330,237,742,690,27399,5323
1161,"C",1.42,48895,16617,138,109,545,192,145,12283,84,70,2371,97,1033,571,25204,4999
1169,"C",1.32,56272,19807,171,54,435,118,129,11906,79,267,3100,168,581,657,32015,5488
1177,"C",1.36,52108,18607,158,59,412,139,84,11905,110,155,2933,126,796,555,28562,5056
1185,"C",1.43,54813,20246,188,52,308,113,49,9409,148,189,3426,0,418,832,33114,5578
1193,"C",1.39,56182,20257,162,50,350,120,109,10620,169,239,3099,177,632,736,32981,5546
1201,"C",1.4,51002,19774,172,21,239,132,65,5938,134,142,3065,0,657,671,33293,5600
1209,"C",1.32,53229,19480,121,97,450,140,95,8198,86,217,2957,101,685,693,32890,5581
1213,"D",1.25,45364,17842,107,69,320,35,84,3699,35,151,2112,139,688,770,31029,5187
1217,"D",1.18,46830,18851,136,43,235,77,46,3304,82,164,2213,13,511,746,32637,5524
1221,"D",1.41,51369,20154,166,43,307,85,112,4394,121,267,2720,89,781,881,34160,6138
1225,"D",1.3,52121,20494,152,46,380,69,74,4436,61,191,2675,186,675,712,35338,6093
1229,"D",1.34,54811,22128,135,49,283,91,39,3396,42,228,3027,0,398,951,38966,6318
1233,"D",1.22,53753,21907,134,27,339,64,39,2564,66,154,2809,20,428,754,39002,6237
1237,"D",1.23,51983,21366,116,24,259,60,8,1491,76,203,2566,90,378,763,38626,6066
1241,"D",1.23,49960,20462,118,39,350,49,71,3425,32,128,2667,0,675,825,34695,5795
1245,"D",1.29,53393,20744,134,59,374,86,77,3752,83,244,2958,179,733,890,36288,6170
1249,"D",1.26,56345,21751,189,53,432,135,128,4411,110,180,3385,112,599,906,38176,6363
1253,"D",1.43,53708,20659,142,51,363,95,86,4226,128,199,3247,229,495,975,36039,5898
1257,"D",1.27,54177,20971,145,87,425,163,138,5442,31,164,3234,106,560,866,35555,5892
1261,"D",1.25,50836,20240,104,41,300,70,57,3933,113,196,2783,161,642,892,34461,6019
1265,"D",1.32,53885,21212,150,48,326,70,126,5118,60,216,2787,135,548,766,36499,6020
1269,"D",1.35,51775,20835,147,34,275,66,42,4173,229,188,2225,47,460,621,35806,6093
1273,"D",1.28,54080,21035,142,61,335,91,112,6004,61,239,2651,43,571,709,35803,5760
1277,"D",1.32,54336,21620,118,36,236,52,32,4439,98,166,2134,0,228,900,38501,6288
1283,"D",1.35,51882,21773,125,26,201,45,17,2172,82,175,2727,70,253,890,38228,5680
1291,"D",1.35,51092,21538,142,15,273,23,32,1794,0,135,2883,40,507,866,37461,5843
1299,"D",1.2,54235,21680,159,10,271,61,58,3310,58,294,2516,102,285,891,38969,5969
1307,"D",1.27,52370,21013,128,10,313,55,29,3342,190,244,2281,36,376,882,37316,5915
1315,"D",1.2,49747,20215,126,30,351,49,62,2366,10,146,2446,111,509,980,35877,5772
1323,"D",1.38,49327,20241,159,48,329,122,65,2832,67,198,2506,0,708,615,34910,5769
1331,"D",1.25,54348,21624,132,23,322,120,111,4213,68,236,2556,11,473,702,37901,6269
1339,"D",1.31,50094,20083,114,18,270,110,71,2331,39,210,2007,0,561,878,36384,5803
1347,"D",1.18,51751,21319,91,55,282,29,34,1564,100,176,2131,33,302,780,38916,6010
1355,"D",1.4,52885,21868,159,28,335,65,60,2080,110,248,2314,15,377,743,38950,6433
1363,"D",1.36,52246,21138,117,8,333,17,12,1519,123,209,2133,0,423,720,39130,6230
1371,"D",1.28,52650,21185,128,23,219,45,35,2587,186,151,2261,0,375,872,38704,6037
1379,"D",1.34,49236,19889,136,10,199,7,38,1917,75,185,1917,56,398,806,36200,6021
1387,"D",1.37,51240,21220,164,24,236,0,62,2345,149,229,2378,66,425,769,37295,6052
1395,"D",1.36,53951,21852,134,28,184,32,23,2697,93,183,2537,0,474,844,39312,6176
1403,"D",1.38,52487,21462,132,25,242,45,56,2519,81,176,2419,39,384,901,38568,6034
1411,"D",1.43,54493,21922,135,16,195,37,16,2759,120,218,2606,0,581,895,39562,6217
1419,"D",1.31,50791,20360,129,48,266,49,25,1884,87,178,2635,0,257,766,37328,5988
1427,"D",1.4,53719,21560,122,23,150,9,21,2545,139,199,2499,0,346,893,39374,6236
1435,"D",1.25,50877,20720,143,16,253,22,45,2122,40,214,2741,0,261,800,37628,5671
1443,"D",1.29,56028,22617,120,29,259,15,26,2143,147,223,3293,0,542,1010,40712,6293
1451,"D",1.34,54223,22115,149,13,356,0,46,1658,94,245,3677,0,333,844,39498,6016
1459,"D",1.44,55275,22848,144,24,228,0,42,943,69,221,3459,76,349,1063,40952,6512
1467,"D",1.16,52848,22265,143,0,254,14,31,759,23,201,2749,0,227,806,40398,6173
1475,"D",1.23,52097,21262,138,8,195,35,0,787,0,218,2865,0,282,839,39557,6269
1483,"D",1.35,53210,21931,131,19,162,57,18,928,46,177,2848,0,424,744,40455,6194
1491,"D",1.23,53934,21786,104,9,190,47,44,1304,7,238,3194,0,289,1037,40304,6043
1499,"D",1.2,53364,22060,124,0,232,20,47,1231,183,219,3124,4,307,671,39998,6131
1507,"D",1.28,51336,20666,135,24,254,25,30,1605,89,206,2809,0,436,1002,37838,5931
1515,"D",1.38,51276,20563,129,25,216,70,57,2081,73,185,2593,0,543,671,37528,6075
1523,"D",1.16,46958,18708,104,6,358,197,70,3625,201,119,2367,98,874,749,31449,5186
1531,"D",1.25,49016,18796,134,43,371,72,121,4684,71,192,2450,0,1087,852,32309,5741
1539,"D",1.22,47772,18934,157,39,305,107,87,3230,125,152,2061,47,1053,699,32824,5796
1547,"D",1.26,45279,17446,158,76,453,146,93,5438,78,206,1663,67,1186,637,28461,5440
1555,"D",1.14,45528,18342,170,36,264,30,73,3140,75,261,2078,113,753,530,31434,5564
1563,"D",1.27,50166,19745,147,29,334,101,51,3185,24,264,2172,48,831,668,34738,6077
1571,"D",1.32,46986,18615,115,43,368,134,62,3269,24,230,2126,107,735,591,32692,5303
1579,"D",1.22,50431,19310,114,81,467,224,155,5526,43,212,1969,136,856,657,33214,5665
1587,"D",1.36,48791,19029,130,78,366,142,78,4652,96,137,1940,17,985,614,32803,5680
1595,"D",1.35,48399,18816,137,65,387,142,71,4883,102,156,1809,34,850,673,32301,5800
1603,"D",1.49,47160,18759,142,71,459,89,96,4271,0,124,1858,143,977,524,31820,5639
1610,"E",1.41,50324,20344,162,171,479,101,80,4563,160,211,2397,67,641,655,34077,5485
1614,"E",1.27,53470,21532,132,22,353,92,85,3271,88,204,2813,53,561,879,37585,6080
1618,"E",1.24,53162,21213,134,50,309,106,52,4227,120,189,2958,0,372,817,36836,6057
1622,"E",1.38,51290,20709,127,60,347,121,35,3558,80,157,3003,55,393,811,35971,5686
1626,"E",1.36,52912,20763,146,28,369,154,66,3826,97,194,2917,179,650,766,36532,5977
1630,"E",1.32,51793,20188,173,42,409,112,104,4509,109,272,2850,0,618,769,34847,5877
1634,"E",1.3,53805,20116,128,51,385,177,140,6549,110,212,2684,170,666,754,34651,5913
1638,"E",1.31,53771,21020,152,37,317,80,70,4439,73,163,2608,117,431,696,37510,6079
1642,"E",1.47,52088,20310,116,43,345,129,56,4591,24,220,2697,138,518,782,35327,5883
1646,"E",1.31,49509,19642,186,44,287,93,51,4193,71,219,2635,286,539,813,33291,5786
1650,"E",1.22,52976,20437,158,36,254,73,53,5328,110,164,3098,0,439,922,35497,5855
1654,"E",1.31,52544,19943,152,49,295,91,70,6864,148,233,2527,0,553,838,33969,5729
1658,"E",1.39,52993,20130,141,52,234,137,79,7450,107,176,2416,16,485,819,34465,5672
1662,"E",1.27,51725,19975,152,26,279,55,38,5491,216,194,2388,78,476,724,34967,5678
1666,"E",1.32,50512,19404,139,32,218,69,59,6184,147,163,2285,0,507,548,33587,5507
1670,"E",1.33,51182,19354,159,30,253,69,58,5722,200,174,2114,0,583,849,33834,5978
1674,"E",1.29,56114,20442,183,44,353,136,46,9272,204,218,2249,40,594,857,35049,5773
1678,"E",1.33,51208,20156,155,36,256,84,47,4583,62,123,2139,0,402,831,35675,5889
1685,"E",1.22,51922,20564,154,29,241,83,18,4290,228,223,2244,56,343,748,36274,6011
1693,"E",1.29,51041,20106,170,42,246,87,43,3577,156,178,2246,149,525,804,35453,5893
1701,"E",1.24,52250,21005,149,40,143,6,5,1956,103,174,2244,0,385,919,38697,6017
1709,"E",1.27,51255,19832,106,142,342,75,75,4315,69,211,2176,74,573,827,35161,5931
1717,"E",1.21,52560,20739,165,15,293,38,0,3384,74,227,2758,111,522,892,36780,6043
1725,"E",1.29,52001,21091,152,43,216,63,13,2226,126,222,2723,0,364,822,37785,6096
1733,"E",1.35,53795,21272,100,28,285,79,45,2700,114,210,3105,0,554,900,38458,6225
1741,"E",1.21,50140,19895,121,31,273,10,32,2322,45,192,2588,81,644,773,36482,5581
1749,"E",1.37,50218,20315,139,30,260,72,56,2215,82,177,2458,92,570,841,36445,5809
1757,"E",1.3,50756,20509,176,57,291,93,49,2876,124,178,2521,0,636,652,36413,5600
1765,"E",1.3,51653,20582,126,34,261,59,56,2598,108,176,2785,116,524,847,36834,5817
1773,"E",1.34,49767,20130,150,24,182,20,48,1821,107,202,2440,23,639,641,36479,5952
1781,"E",1.26,46859,18346,116,30,206,55,44,2625,0,213,2328,12,708,813,33282,5552
1789,"E",1.38,48577,18699,101,23,295,129,62,3720,80,183,2409,131,615,758,33259,5782
1797,"E",1.39,49739,19056,109,37,276,65,97,3529,82,141,2310,244,775,906,34126,5917
1805,"E",1.25,49464,19826,131,26,177,30,24,1817,79,154,3020,118,410,753,36031,5804
1813,"E",1.28,51788,19969,145,53,192,76,19,4197,119,177,2744,62,461,864,35781,6050
1821,"E",1.35,53569,20589,128,25,224,71,35,4798,63,176,2903,0,533,764,36522,5960
1829,"E",1.14,53224,21344,167,32,279,45,51,3404,78,241,2964,0,455,692,37775,5918
1837,"E",1.21,50976,20608,132,80,280,12,43,2918,92,199,2398,0,419,638,37028,5835
1845,"E",1.25,50520,20448,159,20,217,35,7,2209,121,201,2180,0,544,758,37145,5879
1853,"E",1.31,51903,20945,148,46,229,24,65,2063,70,197,2539,131,523,883,37710,6067
1861,"E",1.31,50523,20670,144,26,253,78,0,1673,59,191,2447,45,598,844,37259,5704
1869,"E",1.26,51778,20723,165,23,246,49,31,2527,82,219,2432,119,459,878,37592,6069
1877,"E",1.26,50576,20674,102,6,157,19,36,1432,114,207,2213,194,342,741,38028,5972
1885,"E",1.24,50735,20738,137,0,189,41,7,1542,56,165,2368,144,395,891,37845,5884
1893,"E",1.22,50012,19836,139,39,282,70,55,2173,49,222,2140,188,534,855,36000,6094
1901,"E",1.15,50112,20669,128,0,193,27,43,1660,82,252,2133,50,368,798,37454,5827
1909,"E",1.26,51689,21419,127,0,194,31,30,1605,154,169,2077,68,383,979,38874,6004
1917,"E",1.32,49735,20496,111,9,245,53,28,2178,56,212,2029,15,425,897,36588,5682
1925,"E",1.11,49123,20077,116,35,269,44,45,2181,52,195,2041,6,445,712,36261,5878
1933,"E",1.41,50665,20083,137,27,245,45,69,3180,200,169,2233,0,474,833,36273,5837
1941,"E",1.14,51678,20812,156,7,189,30,22,1163,29,257,2276,136,500,985,38901,5885
1949,"E",1.23,49513,19593,102,5,217,35,50,2068,66,190,2006,130,443,788,36587,5697
1957,"E",1.33,51243,20568,103,9,240,64,8,1884,34,198,2301,119,403,833,37760,6076
1965,"E",1.34,49625,19884,112,41,317,48,19,2161,13,167,2594,0,512,724,36032,5431
1973,"E",1.34,51109,20290,135,24,322,63,70,4915,85,173,2187,0,705,650,35233,5508
1981,"E",1.4,49771,19896,145,38,308,66,55,4268,15,154,2475,61,811,492,34091,5440
1989,"E",1.69,50924,19758,121,23,310,134,94,6315,0,160,2378,115,499,832,33948,5181
1997,"E",1.44,48540,18740,168,66,427,97,96,6145,121,151,2475,173,833,648,30630,5402
2005,"E",1.25,49625,18630,146,108,464,155,101,7355,57,116,2350,187,901,689,30406,5741
2011,"F",1.33,50450,19975,165,31,271,75,25,5575,90,180,2861,61,517,831,33477,5580
2015,"F",1.31,51957,19825,148,46,301,152,99,6759,130,242,3160,0,613,779,32957,5578
2019,"F",1.34,52817,20202,171,62,458,110,90,6970,60,172,3170,10,574,769,33440,5727
2023,"F",1.3,53115,20787,139,55,261,73,46,4257,77,269,3696,96,532,735,36086,5767
2027,"F",1.24,53505,20522,141,70,283,114,61,5375,142,173,3264,0,490,693,35955,5802
2031,"F",1.41,51184,19545,136,58,323,143,71,4756,102,200,3042,117,584,606,34095,5971
2035,"F",1.43,50200,19226,169,36,281,114,72,4711,147,250,3134,66,555,907,32989,5650
2039,"F",1.55,50641,18867,141,51,419,157,137,5969,85,193,2772,28,810,673,32381,5535
2043,"F",1.19,52429,20111,124,35,273,57,55,4890,65,243,3216,0,667,588,35115,5948
2047,"F",1.26,53578,20382,151,41,403,84,98,5333,18,209,3330,28,575,949,35456,6036
2051,"F",1.44,52820,20834,170,37,243,143,53,3642,89,182,2966,55,501,846,36782,5932
2055,"F",1.22,45532,18278,138,28,266,141,79,3100,127,155,2256,76,613,685,31562,5199
2059,"F",1.38,47795,18779,153,38,245,56,79,3918,36,236,2573,150,762,574,32414,5467
2063,"F",1.52,48676,19082,154,35,178,58,67,3271,108,233,2651,116,619,855,33536,5660
2067,"F",1.36,49235,19347,141,28,242,57,60,3429,88,177,2715,0,690,596,33670,5746
2071,"F",1.42,50779,19822,167,74,345,104,78,3700,75,139,2891,118,891,839,34187,6004
2075,"F",1.47,47431,18366,136,85,415,161,102,4470,101,172,2428,0,842,622,31354,5266
2079,"F",1.41,47811,18863,141,71,456,160,98,3919,59,194,2621,40,817,652,32060,5426
2087,"F",1.24,52921,20612,175,36,337,71,73,3102,56,306,2830,113,588,850,37085,6179
2095,"F",1.45,51786,20187,116,46,292,80,83,3096,12,215,3031,219,755,715,35978,5790
2103,"F",1.28,51911,20415,127,26,308,65,84,2132,107,236,3246,0,713,1090,36634,5998
2111,"F",1.24,52907,21428,153,30,305,59,44,2311,49,177,3437,40,351,771,38237,6006
2119,"F",1.33,51531,20684,186,25,282,94,55,2602,0,164,2978,26,542,731,36522,5931
2127,"F",1.23,50796,20165,153,31,220,65,42,2499,116,194,2960,186,515,766,35859,6118
2135,"F",1.18,52614,20873,178,47,307,59,69,2551,129,208,3169,0,553,820,37586,5747
2143,"F",1.39,55444,21316,153,22,307,132,93,4459,32,237,3335,170,424,716,38121,5833
2151,"F",1.29,49738,19686,152,44,271,70,73,3445,93,209,3092,115,499,735,34312,5781
2159,"F",1.37,50126,18341,128,67,422,96,86,5646,181,188,2916,142,774,721,31695,5633
2167,"F",1.28,50396,19543,129,41,293,104,49,4252,40,217,2890,99,576,823,34170,5619
2175,"F",1.45,52172,19411,160,60,374,135,111,6246,21,194,2764,175,828,647,33692,5748
2183,"F",1.33,49604,19082,151,38,359,83,86,5415,139,159,2797,132,674,523,32591,5374
2191,"F",1.34,51678,19487,156,57,429,124,99,6203,112,256,2703,100,783,783,33127,5623
2199,"F",1.33,49580,18707,178,51,399,169,112,6504,121,239,2210,156,967,647,31316,5430
2207,"F",1.17,53227,20742,187,40,323,255,58,2600,101,284,2974,200,761,1022,37015,5950
2215,"F",1.45,53483,20572,168,22,343,124,65,3622,120,234,3061,84,521,744,37116,6067
2223,"F",1.26,51470,20647,147,16,235,80,71,2012,73,186,2874,70,397,849,37228,5998
2231,"F",1.31,50588,19968,119,31,334,52,50,2352,30,239,2609,98,618,710,36251,5773
2239,"F",1.17,52183,20572,143,23,268,137,39,2738,40,177,2949,0,635,675,37333,5713
2247,"F",1.19,48290,19321,109,6,240,58,25,1550,72,199,2372,7,408,863,35248,5720
2255,"F",1.21,46606,18726,106,32,250,70,49,1948,30,170,2267,95,653,801,33342,5615
2263,"F",1.34,49110,19547,138,27,241,242,38,2071,16,191,2382,153,686,782,35338,5722
2271,"F",1.2,51395,20336,133,42,293,74,49,2566,98,190,2189,23,537,861,37129,6079
2279,"F",1.34,50880,20120,153,78,299,109,54,2642,59,194,3237,0,433,756,35796,5867
2287,"F",1.31,50284,19747,124,28,321,99,93,3552,119,272,3856,168,546,661,33733,5559
2295,"F",1.37,51890,20159,158,43,259,93,68,3523,0,219,3907,114,639,965,35041,5688
2303,"F",1.32,51291,20182,164,38,271,119,55,3012,89,206,3273,69,653,840,35623,5788
2311,"F",1.29,50480,19578,159,30,291,96,56,3398,105,191,2996,79,779,775,34765,5652
2319,"F",1.43,52032,20141,165,43,299,103,60,4920,68,146,3061,135,526,666,34984,5578
2327,"F",1.26,52359,19638,123,47,356,118,95,5363,67,177,3069,143,582,906,34875,5472
2335,"F",1.35,53496,20922,128,35,279,86,57,4312,78,208,3246,108,583,706,36706,6005
2343,"F",1.48,50161,19387,147,58,257,85,59,5109,64,147,2794,73,682,625,33587,5454
2351,"F",1.49,48762,19159,106,25,234,40,46,3636,132,199,2651,96,340,600,34050,5475
2359,"F",1.34,47536,18942,136,21,171,53,51,2869,109,177,2990,28,579,663,33232,5630
2367,"F",1.39,47014,17886,100,48,312,173,65,5857,73,133,2268,0,877,708,30269,5280
2375,"F",1.31,45950,17882,145,40,328,78,68,4628,53,188,2055,18,1016,698,30244,5493
2383,"F",1.29,48354,19064,148,28,272,71,74,3344,36,158,2525,114,605,704,33682,5667
2391,"F",1.12,48450,18761,126,60,403,106,86,4436,75,166,2370,0,657,720,32777,5565
2399,"F",1.27,48445,18517,119,72,667,112,51,4265,87,189,2173,151,1042,769,32225,5463
2407,"F",1.24,44922,17525,156,82,442,136,112,5238,130,148,1954,155,904,528,28618,5050
2412,"G",1.37,47024,18490,106,84,391,113,77,5002,101,192,2364,6,574,595,31416,5028
2416,"G",1.38,45685,17494,97,58,413,112,115,5828,128,164,2087,179,638,647,29170,5134
2420,"G",1.29,51944,19307,117,173,466,126,114,7638,83,105,2360,239,687,711,31924,5741
2424,"G",1.23,47983,17169,125,158,648,233,158,10493,51,166,1839,198,703,548,26703,4798
2428,"G",1.27,48721,17350,125,95,552,156,83,9346,160,173,1590,57,862,705,28309,5308
2432,"G",1.48,49062,18123,156,37,349,99,67,7183,62,221,1913,189,734,712,30620,5309
2436,"G",1.25,47615,18161,147,75,467,127,96,6479,95,148,2044,84,822,581,30244,5256
2440,"G",1.36,52711,19201,114,44,462,153,164,8915,83,207,1788,81,719,489,32531,5727
2444,"G",1.36,49375,19553,135,45,267,96,72,4104,43,168,1934,133,516,877,34498,5597
2448,"G",1.17,49493,19692,114,16,179,66,30,2978,19,167,1893,14,589,860,35800,5800
2452,"G",1.22,51033,20490,124,19,251,37,0,3247,125,158,1983,163,408,774,36724,5980
2456,"G",1.36,52285,20946,139,33,251,59,40,3914,52,205,2094,0,257,890,37798,5577
2460,"G",1.38,52569,20851,147,23,280,25,30,3858,73,183,2226,0,280,919,37534,5786
2464,"G",1.23,52077,20775,145,26,196,30,36,3731,88,194,1957,0,347,806,37568,5765
2468,"G",1.27,52727,21033,116,22,234,5,21,4015,127,177,1848,72,273,898,37964,5914
2475,"G",1.26,50139,20761,84,9,160,5,6,1553,0,183,1914,0,194,913,38245,5862
2483,"G",1.29,53428,21968,138,17,188,35,54,1457,48,241,2087,89,378,865,40548,6286
2491,"G",1.22,54532,21591,141,23,182,25,27,2187,119,180,2240,183,325,1040,40382,6259
2499,"G",1.52,51555,20635,133,22,218,35,24,1895,125,204,2013,37,414,847,38461,5988
2507,"G",1.32,54083,21566,123,14,218,16,18,1829,131,165,2263,105,551,1106,40334,6245
2515,"G",1.34,54114,21520,120,25,247,0,6,1796,142,221,2870,99,556,971,39592,6439
2523,"G",1.2,48871,19561,114,24,212,69,61,3065,194,198,2162,43,476,844,34753,5722
2531,"G",1.37,51720,21018,161,75,371,51,67,2265,66,245,2559,0,348,844,37478,6022
2539,"G",1.26,51781,20917,99,30,261,66,77,2214,148,188,2336,74,399,937,38001,6028
2547,"G",1.33,46254,19258,118,24,141,26,51,1856,35,202,2060,58,629,891,33721,5450
2555,"G",1.2,49952,19909,132,17,247,43,26,2406,104,187,2053,28,508,1071,36353,5779
2563,"G",1.29,50389,20764,138,19,210,41,38,2517,47,149,2209,180,227,748,37003,5979
2571,"G",1.26,51730,21438,113,0,187,26,0,780,63,216,2633,0,267,815,39654,6066
2579,"G",1.28,51689,21522,120,36,159,44,0,852,90,203,2875,0,251,746,39407,6160
2587,"G",1.36,53891,21405,122,23,263,48,47,3248,135,177,2807,60,351,870,38862,5929
2595,"G",1.63,52185,21722,107,29,232,60,11,1169,76,227,2681,0,264,815,39309,6331
2603,"G",1.41,51524,21121,109,10,205,8,42,1290,144,193,2430,140,456,1017,38345,5843
2611,"G",1.39,50583,20637,128,27,248,59,13,1561,111,187,2531,0,483,949,37417,5907
2619,"G",1.3,51200,20999,151,24,250,31,24,1400,41,216,2693,87,519,706,38115,6037
2627,"G",1.19,51550,20974,129,25,258,0,55,1219,117,174,2815,165,400,738,38046,6261
2635,"G",1.41,53445,21676,110,0,234,60,32,1089,135,179,2732,0,296,1002,39973,6518
2643,"G",1.19,51507,20911,127,18,281,36,21,1039,78,198,2751,0,429,678,38600,5992
2651,"G",1.44,52229,21024,135,18,273,46,18,1526,0,199,2837,90,350,803,38477,5983
2659,"G",1.23,51936,21306,108,33,310,46,11,1338,25,160,3007,0,336,604,38506,6143
2667,"G",1.26,54098,21807,138,21,268,56,27,1113,32,275,3054,0,395,737,40271,6378
2675,"G",1.18,51007,20485,119,29,215,30,38,985,80,215,3204,47,457,765,37541,6083
2683,"G",1.33,50056,20065,99,41,294,151,54,1704,170,210,2867,0,790,731,35625,5951
2691,"G",1.3,51102,20432,134,24,374,49,76,1631,72,229,3115,34,552,801,37227,5916
2699,"G",1.63,53316,22041,144,25,182,15,15,772,15,185,3370,0,340,827,40377,5923
2707,"G",1.38,53490,21616,146,21,235,12,34,889,20,223,3383,19,591,1102,39273,6337
2715,"G",1.48,53980,22157,178,11,262,30,57,1631,111,247,2920,60,370,832,39756,6243
2723,"G",1.57,51450,20932,137,34,329,47,17,2117,63,236,2749,0,596,709,37315,6086
2731,"G",1.43,54666,21752,139,20,285,66,48,2682,145,229,3172,0,522,958,38852,6218
2739,"G",1.45,54080,21797,160,24,325,46,52,2058,82,202,3038,0,432,837,39630,6102
2747,"G",1.27,55476,22659,142,10,315,37,90,1330,105,191,3166,0,425,969,41285,6236
2755,"G",1.34,51279,20382,82,39,328,66,46,1722,103,178,2704,0,491,923,37421,5924
2763,"G",1.33,52964,21436,132,6,205,37,34,1808,98,165,3290,114,603,644,38337,6205
2771,"G",1.2,53173,21312,153,35,236,17,32,1266,107,241,3431,18,538,743,39171,5950
2779,"G",1.25,51948,21424,127,34,254,37,27,718,36,192,2948,0,367,732,39243,6042
2787,"G",1.26,53128,21588,160,46,383,77,80,2207,175,232,3134,38,423,916,38240,6009
2795,"G",1.36,53637,22072,156,43,304,51,61,1790,157,151,2683,80,200,900,39563,6242
2803,"G",1.14,52594,21085,102,37,221,30,41,2167,111,268,2642,53,312,986,38050,6235
2810,"H",1.32,48670,20027,130,26,327,50,41,2763,123,155,2294,113,522,676,34801,5347
2814,"H",1.33,49713,20350,101,38,252,83,33,2884,49,237,2243,0,448,621,36042,5598
2818,"H",1.29,50648,20647,149,15,341,31,55,3636,87,135,2406,82,437,717,35967,5587
2822,"H",1.5,53005,22187,139,12,270,69,35,3503,100,188,2582,0,202,731,38344,5773
2826,"H",1.48,50580,21078,149,11,268,48,9,2829,36,235,2402,0,416,591,37253,5527
2830,"H",1.34,52115,20990,122,24,231,35,29,2952,130,177,2388,174,495,818,37418,5936
2834,"H",1.43,51741,21178,151,32,288,21,37,2537,119,202,2347,203,538,902,37391,5989
2838,"H",1.39,51410,21548,146,37,227,29,0,2013,46,223,2252,204,483,855,38052,5740
2842,"H",1.37,52666,21323,165,34,326,52,64,3378,107,242,2713,63,770,1016,36857,5920
2846,"H",1.39,49987,20516,144,35,300,87,57,3011,50,159,2498,109,661,870,35496,5479
2850,"H",1.45,50894,20404,166,25,281,77,68,3431,0,212,2348,264,649,737,35340,6065
2854,"H",1.45,53622,21158,137,19,255,99,66,3902,168,140,3070,75,629,684,37098,6091
2858,"H",1.39,50878,20028,168,34,264,63,83,3790,68,197,2807,52,633,689,34863,5963
2862,"H",1.22,52107,20157,124,51,382,85,101,5126,100,179,2764,202,642,805,34466,5873
2866,"H",1.34,50484,19539,110,19,257,77,64,5656,108,143,2573,148,775,849,32784,5819
2870,"H",1.3,56500,20534,140,27,260,83,95,10723,106,199,2334,100,748,799,33839,5764
2874,"H",1.38,53397,21190,142,26,311,53,56,3218,101,191,2888,36,695,900,37614,6056
2878,"H",1.25,50825,20202,123,35,239,40,30,2176,0,215,2587,70,368,879,37279,5851
2885,"H",1.35,53379,21562,165,21,252,19,49,2954,142,159,2730,94,514,929,38253,6154
2893,"H",1.26,54831,21574,145,18,232,44,47,2762,133,175,3145,62,440,812,39333,6337
2901,"H",1.32,55709,22428,132,18,279,38,36,1236,34,202,3329,69,380,921,41209,6698
2909,"H",1.21,55866,22781,142,21,259,37,40,1141,33,168,3343,56,499,960,41539,6483
2917,"H",1.31,54605,22279,155,36,387,112,37,1314,68,220,3187,128,399,914,40167,6353
2925,"H",1.39,53915,21904,121,39,324,38,49,1055,56,158,2638,131,353,892,40520,6406
2933,"H",1.24,52753,22038,117,51,360,43,29,825,86,245,2641,0,501,928,39656,6178
2941,"H",1.29,55471,22495,146,29,268,58,48,1574,0,244,2767,201,612,849,40842,6445
2949,"H",1.23,55694,22431,173,41,272,50,39,1342,133,233,3156,103,646,997,40806,6411
2957,"H",1.35,54046,22235,175,36,366,87,76,1936,0,164,3045,41,495,804,39107,6033
2965,"H",1.41,52164,21088,149,32,304,56,53,2206,53,253,2809,24,429,675,37951,6048
2973,"H",1.41,53289,20936,139,55,395,74,53,3703,92,166,3083,0,524,797,36782,6169
2981,"H",1.37,54520,21047,143,43,303,62,60,4078,54,246,2888,117,626,831,37518,6217
2989,"H",1.21,56034,22167,137,15,335,6,78,3174,161,240,3213,36,528,755,39950,6129
2997,"H",1.31,57582,21573,150,52,403,124,76,5084,117,245,3757,114,675,793,37979,6456
3005,"H",1.42,52498,20329,146,48,383,103,56,4211,84,188,3110,6,719,855,35519,6256
3013,"H",1.39,50303,19513,86,31,328,45,92,3609,107,248,2484,135,713,668,34850,5620
3021,"H",1.27,51533,21213,111,10,244,36,0,2468,20,209,2789,0,227,704,38100,5778
3029,"H",1.35,52459,20988,169,21,303,57,76,2833,125,170,2453,72,292,909,37745,6131
3037,"H",1.33,51525,20634,126,9,273,61,25,2992,94,246,2165,29,576,896,37084,5879
3045,"H",1.36,53403,21372,123,14,305,52,40,2755,132,130,2522,56,449,799,38726,6336
3053,"H",1.41,52400,21305,133,24,275,42,53,2596,74,186,2527,0,411,800,38319,5919
3061,"H",1.22,52911,21162,126,27,264,48,78,3012,115,161,2174,127,530,768,38443,5982
3069,"H",1.22,54195,22641,136,15,270,34,36,1523,69,241,2140,203,349,1164,40876,6151
3077,"H",1.37,50674,20891,118,16,266,50,51,2050,73,156,2265,19,262,955,37332,5809
3085,"H",1.31,52534,21576,127,6,313,5,46,1774,53,194,2599,0,477,1043,38841,6161
3093,"H",1.2,52311,20691,147,29,325,72,40,3286,67,204,2557,0,627,975,36575,6028
3101,"H",1.37,53819,20614,152,22,306,88,35,6443,64,187,2209,35,535,852,35971,5901
3109,"H",1.27,54991,20290,107,46,395,150,76,8085,99,226,2044,24,861,904,34989,5794
3117,"H",1.31,54826,20613,135,88,469,123,48,6712,103,209,2233,12,717,677,36048,6026
3125,"H",1.27,53316,20909,143,59,448,137,91,6473,13,183,2193,21,711,693,35464,5643
3133,"H",1.31,52130,20357,141,43,398,94,65,5039,207,193,2198,126,649,703,35055,5900
3141,"H",1.22,53921,20388,154,63,476,144,89,5692,154,205,2240,61,779,925,35587,6084
3149,"H",1.27,54343,20488,145,51,421,128,87,6775,143,221,2295,89,711,670,35496,5902
3157,"H",1.33,55503,20913,148,29,285,91,22,5844,157,205,2549,70,672,1050,36942,6388
3165,"H",1.28,53520,20371,141,56,368,74,86,6281,165,206,2360,42,602,762,35277,5948
3173,"H",1.26,52145,20330,123,49,370,81,46,5116,206,214,2132,5,734,762,35345,5982
3181,"H",1.31,51576,20799,92,41,389,102,78,3591,127,210,2265,91,523,732,36562,5823
3189,"H",1.33,52834,20657,131,38,326,24,70,3504,110,219,2522,46,750,945,37026,5790
3197,"H",1.41,51347,20648,137,30,257,76,53,2464,105,245,2543,0,553,826,37047,5809
3205,"H",1.5,56928,21098,151,30,275,37,109,6106,267,201,3377,68,634,774,37432,6150
3211,"I",1.24,51050,21015,156,0,326,74,46,3995,0,187,2356,108,512,678,36154,5581
3215,"I",1.37,53072,20974,154,32,364,52,67,4760,107,180,3010,0,476,852,36172,5839
3219,"I",1.25,52985,20933,126,33,406,38,78,4402,118,174,3042,0,437,777,36570,5800
3223,"I",1.21,53162,21307,142,5,284,34,36,2934,123,190,2917,0,536,748,37920,6104
3227,"I",1.39,53162,21209,127,20,317,54,56,3626,72,247,2753,0,608,798,37424,5968
3231,"I",1.33,54824,21252,141,39,360,82,51,3286,30,220,2543,20,673,976,38364,6509
3235,"I",1.27,53228,20953,114,30,342,80,43,4232,186,253,2292,0,606,933,36744,6115
3239,"I",1.36,51812,20106,122,26,418,62,60,5083,183,220,2642,7,608,753,34800,5862
3243,"I",1.71,56340,20395,133,25,395,62,51,10181,343,188,2672,0,766,807,33754,5740
3247,"I",1.39,54225,20614,121,61,437,133,96,7009,139,166,2834,0,446,733,35222,5879
3251,"I",1.31,51332,20346,99,39,364,110,101,4585,136,179,2587,0,582,698,35229,5739
3255,"I",1.32,54766,21025,116,47,400,67,38,5632,119,168,3091,23,637,675,36539,5860
3259,"I",1.29,52371,20838,133,53,476,80,38,3410,82,191,2779,14,482,900,36777,5868
3263,"I",1.31,51018,20095,97,30,326,60,20,2901,42,155,2559,50,306,922,36443,5900
3267,"I",1.3,52487,20812,115,19,374,48,59,2464,75,172,2813,86,656,862,37733,5913
3271,"I",1.22,49912,20104,78,57,296,73,27,1645,0,163,2601,30,493,653,36980,6076
3276,"I",1.31,58765,22623,142,73,373,269,58,4361,108,153,2964,17,612,886,41105,6608
3284,"I",1.46,53908,22435,135,28,236,11,49,983,16,128,2620,0,411,925,41026,6325
3292,"I",1.34,53362,22026,137,18,286,22,23,1035,0,178,2193,0,480,798,40735,6353
3300,"I",1.23,53720,21968,113,0,310,75,71,1531,73,229,2718,15,401,767,39910,6375
3308,"I",1.25,54241,21966,153,23,365,34,22,1880,69,178,2480,26,431,1027,40049,6516
3316,"I",1.23,53710,21404,122,37,300,39,42,2939,0,180,2602,44,586,769,38742,6037
3324,"I",1.27,52806,20724,127,36,404,72,45,5544,92,152,2393,138,416,713,35608,5842
3332,"I",1.51,52895,21568,131,37,286,56,19,2710,89,243,2712,0,393,850,38384,6005
3340,"I",1.38,55319,22057,133,12,243,35,38,3391,38,169,3061,9,328,746,39743,6151
3348,"I",1.48,57023,22259,101,24,331,69,82,5434,149,222,2805,88,324,716,39446,5972
3356,"I",1.33,55395,21685,145,50,329,37,32,4835,125,251,2891,0,399,791,38348,6009
3364,"I",1.43,55317,21570,122,37,277,63,35,4153,113,189,2949,102,579,792,38573,6068
3372,"I",1.34,54118,21623,120,19,258,6,51,2304,59,164,3219,35,390,801,39598,6099
3380,"I",1.25,55147,22084,158,18,255,25,47,2892,44,213,3126,14,336,968,39771,6321
3388,"I",1.28,52854,21125,107,22,223,53,21,3178,38,199,2735,30,259,611,38294,5922
3396,"I",1.31,52318,21208,109,22,284,37,35,2848,115,190,3193,0,597,701,37204,6001
3404,"I",1.31,54730,22436,133,24,288,0,52,1517,64,244,2895,5,605,1030,40434,6204
3412,"I",1.26,55537,22864,128,39,300,27,20,1601,15,180,3360,0,306,878,41052,6838
3420,"I",1.34,56274,23035,120,28,288,52,12,902,27,259,3251,31,497,889,42057,6627
3428,"I",1.41,54364,22405,125,15,242,0,23,1139,38,191,2886,35,407,782,40839,6382
3436,"I",1.36,52876,21414,153,35,321,35,52,1453,100,190,2657,0,372,1031,39408,6243
3444,"I",1.29,57374,23254,163,36,321,46,41,1308,12,216,3732,71,403,864,42296,6655
3452,"I",1.33,54766,22115,135,10,289,66,32,2114,86,234,3387,42,582,851,39566,6320
3460,"I",1.27,55262,22802,112,13,332,40,35,1229,34,183,2846,49,627,804,41381,6275
3468,"I",1.29,53931,22466,134,20,313,14,51,1037,51,193,2665,0,444,880,40646,6203
3476,"I",1.22,55952,22839,131,0,334,17,52,1236,74,221,3029,191,462,852,41691,6424
3484,"I",1.31,56724,23130,133,26,288,23,20,1224,0,210,3145,0,475,880,42108,6678
3492,"I",1.33,54615,22510,122,27,323,55,29,1893,89,210,2782,0,545,839,40125,6426
3500,"I",1.22,55446,22597,136,24,374,41,44,1969,143,171,2830,128,423,726,40816,6468
3508,"I",1.27,52767,21020,107,47,372,126,112,3522,115,210,2765,0,646,855,36934,5924
3516,"I",1.22,53253,20905,142,56,401,116,86,4397,208,208,2919,94,775,727,35976,5941
3524,"I",1.25,51222,20307,111,71,453,157,83,4296,177,213,2446,16,351,757,35410,5758
3532,"I",1.41,50615,19311,158,77,528,167,97,5471,67,134,2541,118,766,683,32881,5461
3540,"I",1.4,49978,19782,134,60,482,101,76,5293,199,219,2575,0,777,828,32524,5729
3548,"I",1.35,51494,19539,117,68,560,368,111,6738,164,174,2297,114,1105,599,32027,5941
3556,"I",1.28,49275,18583,103,85,506,161,116,6606,84,170,1994,142,1122,682,30355,5641
3562,"I",1.27,51943,19373,118,77,624,213,142,6412,176,215,2130,159,940,821,32938,5998
3566,"I",1.29,50556,19880,117,49,432,141,87,4755,155,159,2236,147,925,667,33875,5936
3570,"I",1.25,52729,20527,114,61,500,148,117,5239,99,190,2373,110,756,691,35146,5954
3574,"I",1.35,51962,20486,106,37,497,148,66,3445,50,174,2530,123,581,590,36419,5932
3578,"I",1.36,52452,20808,150,48,404,107,71,2972,73,208,2466,154,572,673,37328,5911
3582,"I",1.25,54476,20972,125,77,511,123,99,4173,93,234,2597,174,761,905,37067,6139
3586,"I",1.33,51823,19966,132,51,390,112,116,4331,125,167,2332,0,787,859,35341,6074
3590,"I",1.22,50114,18742,123,77,632,165,87,6026,86,191,2163,137,693,701,32203,5536
3594,"I",1.43,51477,19260,111,89,613,200,132,7166,128,219,2097,42,1097,755,32173,5551
3598,"I",1.37,51502,20036,158,93,504,187,122,5508,18,181,2475,82,774,696,33946,5660
3602,"I",1.19,52119,19553,113,98,624,150,78,6869,71,200,2385,161,876,733,32817,5645
3606,"I",1.19,51587,19301,137,78,596,131,134,6806,165,219,2131,87,772,670,32679,5654
3610,"I",1.17,52547,20330,139,61,490,159,80,5355,136,182,2641,71,821,1130,33897,6039
3614,"I",1.54,52131,17788,100,131,730,238,170,12708,173,173,1724,117,813,630,27974,5178
3618,"I",1.33,49794,17764,99,140,845,303,178,10178,12,129,1722,77,1084,442,28296,5379
3622,"I",1.24,48474,17228,94,86,775,232,165,9103,177,222,1951,12,1123,546,27376,5171
3626,"I",1.35,42796,14967,85,118,596,177,115,7996,36,109,1509,137,1065,540,24444,4785
3630,"I",1.42,49382,17380,103,84,606,278,170,10203,208,174,2006,147,1056,507,27635,5156
3634,"I",1.34,49985,17602,110,117,788,301,205,11190,144,210,1757,241,1054,499,26862,5206
3638,"I",1.37,50530,17160,111,83,697,512,186,11759,107,155,1834,147,1027,510,26795,5143
3642,"I",1.37,47694,16638,127,66,622,229,177,10908,81,215,1613,127,1308,704,25201,5060
3646,"I",1.35,56144,18046,135,145,670,285,184,16892,59,215,1962,112,1038,599,27098,5368
3650,"I",1.22,51978,17687,112,120,632,208,91,12383,128,169,1745,169,988,656,27991,5407
3654,"I",1.29,51712,17826,151,160,664,343,195,12279,40,188,2010,6,1054,596,27530,5376
3658,"I",1.28,49782,17602,124,105,570,188,137,9695,130,145,2073,150,999,690,28329,5164
3662,"I",1.29,52765,18053,102,138,729,294,162,13062,27,151,1814,148,860,525,28231,5243
3666,"I",1.4,55355,17820,107,188,1062,328,158,15530,79,166,1705,83,1054,805,27727,5156
3670,"I",1.23,58453,18550,141,195,947,357,314,18299,167,200,1938,153,1114,752,27283,5294
3674,"I",1.39,64031,18942,118,267,1185,696,303,24851,0,152,1679,120,1210,590,26523,5135
3681,"J",1.22,46258,16424,85,121,677,211,162,9331,173,186,1582,84,963,667,25822,5135
3689,"J",1.3,49015,17221,116,65,567,179,152,11276,111,186,1614,193,947,642,27057,5109
3697,"J",1.36,48284,17562,114,82,525,183,157,8842,121,195,1794,107,965,761,28251,5207
3705,"J",1.26,51260,18817,127,69,425,134,140,8007,139,234,1952,145,915,666,31501,5601
3713,"J",1.24,49218,18256,134,50,545,184,93,8522,23,215,1447,112,946,717,29693,5429
3721,"J",1.33,46123,15497,114,141,887,360,244,11209,25,107,1301,309,1412,641,22957,5075
3729,"J",1.26,45766,15889,110,119,664,330,201,11481,141,152,1367,147,1229,554,23533,4633
3737,"J",1.35,46985,17413,101,83,521,163,104,8142,229,152,1707,62,1203,525,27680,5319
3745,"J",1.28,42370,15445,128,87,528,273,169,9140,206,137,1126,201,1413,825,22012,4920
3753,"J",1.23,52324,18790,110,84,459,168,85,9743,156,170,1957,18,659,853,31363,5581
3761,"J",1.39,55010,20565,125,49,424,127,53,7554,202,155,2838,84,482,919,34750,5864
3769,"J",1.42,56156,20899,115,48,347,87,46,8180,188,230,2857,0,423,656,36108,5777
3777,"J",1.25,51930,19701,122,32,267,61,30,6153,152,166,2456,0,251,693,35012,5514
3785,"J",1.2,52488,20073,111,17,290,38,47,5796,143,220,2667,26,356,623,35525,5466
3793,"J",1.47,50375,20139,120,27,297,54,6,4541,59,226,2339,29,377,632,35368,5453
3801,"J",1.45,52879,20320,104,23,278,52,0,5073,102,130,2539,5,389,762,36648,5716
3809,"J",1.4,50590,18925,111,24,351,80,78,6643,102,158,2682,169,721,801,32389,5482
3817,"J",1.35,56438,19964,112,23,419,104,85,10437,83,150,2776,46,621,790,34086,5371
3825,"J",1.34,51186,19648,94,61,320,56,36,5426,106,166,3010,0,407,695,34225,5460
3833,"J",1.31,54179,19269,80,41,263,52,89,10244,42,208,2422,109,302,775,33039,5405
3841,"J",1.25,53047,19506,115,25,340,27,46,7354,135,184,2117,121,444,710,34362,5747
3849,"J",1.56,50305,19124,131,62,383,51,95,6043,8,115,2130,67,559,836,33440,5562
3857,"J",1.35,49929,19068,93,41,376,81,92,4465,109,174,2386,75,655,945,33728,5557
3865,"J",1.4,49459,19479,89,42,297,83,35,3169,97,217,1957,166,649,913,35111,5612
3873,"J",1.42,51835,20083,93,34,284,89,51,4118,22,227,1927,88,448,960,36374,6049
3881,"J",1.19,49899,19125,105,60,325,61,87,4056,47,184,2254,0,780,814,34301,5573
3889,"J",1.31,45825,17620,105,67,396,227,96,4641,13,174,2034,170,771,549,30336,5090
3897,"J",1.21,43365,16860,91,63,337,92,88,3741,28,170,1777,115,755,696,29436,5090
3905,"J",1.34,47375,17544,79,82,414,114,78,6215,69,158,1919,176,703,747,30267,5260
3913,"J",1.27,41595,14572,73,87,720,224,191,9327,99,194,1414,208,1234,610,21708,4548
3921,"J",1.24,46383,17503,87,58,432,155,97,5621,88,165,2010,176,983,523,30036,5078
3929,"J",1.28,45712,17397,123,23,441,122,94,5049,133,212,2185,0,683,733,29678,5226
3937,"J",1.36,47424,17791,109,64,436,114,97,5030,23,174,2215,252,921,572,30583,5460
3945,"J",1.42,50732,18824,115,47,316,87,84,7370,127,100,2514,79,685,776,32087,5280
3953,"J",1.31,51903,18705,104,75,545,155,113,8826,80,167,2324,191,1012,651,31232,5271
3961,"J",1.18,50772,18891,142,58,497,435,140,7604,70,167,2272,126,651,622,31604,5368
3969,"J",1.36,47877,18542,87,48,460,97,89,4968,158,188,2071,9,762,751,31877,5438
3977,"J",1.26,50484,19457,92,59,374,88,7,3698,141,196,2446,0,715,800,34834,5661
3985,"J",1.25,53316,19884,104,28,314,100,44,8091,159,208,2319,153,596,605,33959,5373
3993,"J",1.29,51177,19152,88,59,397,87,81,6499,197,138,2338,9,516,721,33032,5884
4001,"J",1.2,49935,19009,101,37,399,105,91,5436,147,169,2212,146,600,801,32910,5534
4009,"J",1.35,46694,18424,113,24,371,108,67,4044,55,151,2210,110,454,546,32151,5208
4017,"J",1.31,50723,19777,110,60,369,81,55,4255,92,158,2185,62,635,659,35009,5656
4025,"J",1.26,58726,20452,116,96,821,325,223,12561,101,135,1904,0,689,778,33895,5693
4029,"J",1.37,57460,21026,118,62,482,163,63,8382,110,191,2701,220,929,915,36316,5627