File: Data/ITRAX/HER42L/Output/itraxR/HER42PB_xrf_cps.csv
"depth","MSE","cps","kcps","validity","Mg","Al","Si","P","S","Cl","Ar","K","Ca","Ti","V","Cr","Mn","Fe","Co","Ni","Cu","Zn","As","Se","Br","Rb","Sr","Y","Zr","Sn","I","Cs","Ba","Ta","W","Ir","Pt","Au","Hg","Pb","Th","U","Mo inc","Mo coh","filename","position","sample surface","E-gain","E-offset","F-slope","F-offset","Fe a*2","S1","S2","S3","label"
11,1.31,49916,18181,TRUE,0,10,10,0,24,122,104,82,335,179,0,5,152,8205,100,207,107,0,0,0,3291,165,685,0,595,0,0,0,0,165,171,0,10,58,0,46,84,0,29836,5132,"C:\Data\BAS_sjro\Oct_2017\Hermite\HER42-PB\H42-PB1A_XRF\XRF data\L000000.spe",11,6.64,0.018361,-0.022175,0.007024,0.110437,36,0,5,2.89042e+15,"A"
39,1.33,57026,19773,TRUE,0,22,23,0,26,133,125,83,472,120,25,13,189,11187,23,217,200,0,0,91,4328,271,913,0,575,0,0,0,10,121,288,0,44,0,0,9,111,0,31921,5413,"C:\Data\BAS_sjro\Oct_2017\Hermite\HER42-PB\H42-PB1A_XRF\XRF data\L000028.spe",39,6.93,0.018365,-0.022175,0.007262,0.110437,73,142,22,4.17113e+14,"A"
67,1.38,56427,19716,TRUE,0,9,4,0,16,140,74,98,559,148,0,21,128,11410,147,199,152,26,0,60,4220,60,724,0,662,0,0,0,0,199,286,0,0,0,0,132,196,25,31216,5516,"C:\Data\BAS_sjro\Oct_2017\Hermite\HER42-PB\H42-PB1A_XRF\XRF data\L000056.spe",67,6.99,0.018361,-0.022175,0.007508,0.110437,0,79,0,0,"A"
95,1.42,59445,19239,TRUE,37,22,18,0,29,123,103,82,463,199,13,8,160,18749,11,211,103,0,0,109,3809,111,694,0,645,0,0,0,5,199,292,0,78,17,0,123,0,49,27830,5139,"C:\Data\BAS_sjro\Oct_2017\Hermite\HER42-PB\H42-PB1A_XRF\XRF data\L000084.spe",95,7,0.018361,-0.022175,0.007089,0.110437,14,194,24,0,"A"
123,1.23,71464,21551,TRUE,15,48,27,19,6,124,76,84,472,160,23,25,87,26188,256,164,198,46,0,108,3127,236,884,0,800,0,0,0,0,148,280,0,87,0,0,101,22,0,32036,5477,"C:\Data\BAS_sjro\Oct_2017\Hermite\HER42-PB\H42-PB1A_XRF\XRF data\L000112.spe",123,6.96,0.018355,-0.022175,0.007106,0.110437,140,67,13,0,"A"
151,1.29,51597,18216,TRUE,21,47,27,16,14,153,127,110,420,139,10,25,142,9924,219,238,207,0,0,18,2580,208,940,15,793,0,0,0,8,182,217,0,0,55,0,52,142,73,29064,5411,"C:\Data\BAS_sjro\Oct_2017\Hermite\HER42-PB\H42-PB1A_XRF\XRF data\L000140.spe",151,7.01,0.018344,-0.022175,0.007659,0.110437,0,8,11,0,"A"
179,1.16,46396,18164,TRUE,0,0,13,0,20,113,123,44,329,73,0,15,89,3736,126,263,160,0,0,68,2098,143,861,0,787,0,0,0,19,207,194,0,0,54,0,82,128,27,31091,5517,"C:\Data\BAS_sjro\Oct_2017\Hermite\HER42-PB\H42-PB1A_XRF\XRF data\L000168.spe",179,6.99,0.018345,-0.022175,0.007435,0.110437,16,63,0,0,"A"
207,1.43,46909,17140,TRUE,16,24,20,11,32,134,123,70,427,187,20,14,161,8409,127,207,70,0,0,79,2111,117,1038,0,703,0,0,0,0,148,207,0,0,0,11,122,59,70,27072,5094,"C:\Data\BAS_sjro\Oct_2017\Hermite\HER42-PB\H42-PB1A_XRF\XRF data\L000196.spe",207,6.95,0.018346,-0.022175,0.007477,0.110437,26,41,20,1.74915e+15,"A"
235,1.25,48785,18384,TRUE,0,10,0,0,45,149,93,102,454,174,5,22,122,6553,163,207,162,0,0,96,1944,127,953,0,610,0,0,0,14,216,269,0,56,39,0,128,35,64,30358,5615,"C:\Data\BAS_sjro\Oct_2017\Hermite\HER42-PB\H42-PB1A_XRF\XRF data\L000224.spe",235,6.89,0.018343,-0.022175,0.007505,0.110437,0,0,4,0,"A"
263,1.36,43593,15868,TRUE,15,35,30,41,48,104,117,97,784,185,0,21,116,7098,79,128,164,55,0,45,1569,151,1108,0,545,8,0,0,17,151,241,0,0,0,0,116,186,19,25551,4769,"C:\Data\BAS_sjro\Oct_2017\Hermite\HER42-PB\H42-PB1A_XRF\XRF data\L000252.spe",263,6.93,0.018363,-0.022175,0.007359,0.110437,0,31,25,3.07814e+15,"A"
291,1.22,48178,16927,TRUE,36,27,29,19,21,148,92,96,409,190,18,0,136,11035,108,155,169,0,30,52,1745,92,994,0,581,0,0,0,0,137,306,0,0,13,0,17,65,0,26160,5249,"C:\Data\BAS_sjro\Oct_2017\Hermite\HER42-PB\H42-PB1A_XRF\XRF data\L000280.spe",291,6.83,0.018356,-0.022175,0.007517,0.110437,49,98,19,0,"A"
319,1.31,51459,16257,TRUE,0,0,13,0,41,137,114,100,528,490,20,30,206,17129,0,131,130,0,0,0,1631,190,926,0,666,0,0,0,10,125,218,21,35,54,0,69,34,0,23536,4778,"C:\Data\BAS_sjro\Oct_2017\Hermite\HER42-PB\H42-PB1A_XRF\XRF data\L000308.spe",319,6.89,0.018362,-0.022175,0.007319,0.110437,97,229,24,0,"A"
347,1.27,49021,16473,TRUE,0,23,0,18,31,159,110,72,423,178,22,31,154,13441,181,146,117,0,0,92,1674,264,1050,0,556,0,0,0,0,162,225,0,14,0,0,12,46,0,24586,5020,"C:\Data\BAS_sjro\Oct_2017\Hermite\HER42-PB\H42-PB1A_XRF\XRF data\L000336.spe",347,6.89,0.018353,-0.022175,0.007275,0.110437,214,65,6,7.15041e+14,"A"
375,1.4,51033,16981,TRUE,36,30,23,17,39,93,119,123,522,459,15,12,169,13920,105,151,177,28,0,37,2188,172,931,0,609,0,12,0,14,158,193,0,63,9,0,45,38,101,25651,4760,"C:\Data\BAS_sjro\Oct_2017\Hermite\HER42-PB\H42-PB1A_XRF\XRF data\L000364.spe",375,6.87,0.018357,-0.022175,0.007113,0.110437,14,167,22,0,"A"
403,1.21,48679,16568,TRUE,0,12,0,11,33,168,110,70,390,120,0,21,141,12884,103,141,98,0,0,107,2146,34,1153,0,592,0,0,5,0,143,186,0,0,0,0,78,107,0,24664,5144,"C:\Data\BAS_sjro\Oct_2017\Hermite\HER42-PB\H42-PB1A_XRF\XRF data\L000392.spe",403,6.81,0.018355,-0.022175,0.007407,0.110437,18,132,9,1.50586e+15,"A"
420,1.36,66980,20974,TRUE,14,44,4,11,53,181,88,114,540,281,36,16,152,24139,139,192,60,29,0,63,2709,106,679,0,575,0,0,0,0,182,193,0,33,107,0,124,52,121,30521,5393,"C:\Data\BAS_sjro\Oct_2017\Hermite\HER42-PB\H42-PB1B_XRF\XRF data\L000010.spe",521,6.61,0.018357,-0.022175,0.007254,0.110437,29,154,5,1.21235e+15,"B"
434,1.55,55730,18804,TRUE,0,17,6,0,33,153,75,69,510,267,0,11,160,14682,160,137,137,0,0,107,2433,148,736,0,709,0,0,0,0,276,323,0,0,13,0,56,0,8,29177,5327,"C:\Data\BAS_sjro\Oct_2017\Hermite\HER42-PB\H42-PB1B_XRF\XRF data\L000024.spe",535,6.68,0.018355,-0.022175,0.007474,0.110437,0,76,6,1.47986e+15,"B"
448,1.32,53329,18580,TRUE,0,7,0,0,33,137,109,74,504,184,19,0,129,13225,50,124,145,0,0,46,2207,124,730,11,571,0,0,0,0,116,212,0,27,57,0,113,22,23,29132,5116,"C:\Data\BAS_sjro\Oct_2017\Hermite\HER42-PB\H42-PB1B_XRF\XRF data\L000038.spe",549,6.82,0.018359,-0.022175,0.007235,0.110437,82,118,12,5.35906e+14,"B"
462,1.34,48139,17437,TRUE,0,37,17,0,33,120,103,66,367,152,9,0,162,7582,72,179,118,0,0,71,2065,96,1071,0,710,0,0,0,19,199,259,0,65,19,0,157,0,0,28997,5299,"C:\Data\BAS_sjro\Oct_2017\Hermite\HER42-PB\H42-PB1B_XRF\XRF data\L000052.spe",563,6.86,0.018359,-0.022175,0.007343,0.110437,95,76,9,0,"B"
476,1.47,48414,18323,TRUE,18,0,49,0,39,134,132,71,381,138,35,0,109,6206,90,136,68,0,0,165,2293,23,706,0,635,0,0,0,0,185,170,0,0,0,0,130,156,92,30899,5354,"C:\Data\BAS_sjro\Oct_2017\Hermite\HER42-PB\H42-PB1B_XRF\XRF data\L000066.spe",577,6.92,0.018359,-0.022175,0.007254,0.110437,0,8,15,0,"B"
495,1.21,47318,18820,TRUE,0,0,0,0,12,126,121,78,285,106,30,7,87,3354,116,239,145,0,0,84,2368,51,688,0,701,0,0,0,0,266,250,0,0,0,0,155,20,0,32507,5522,"C:\Data\BAS_sjro\Oct_2017\Hermite\HER42-PB\H42-PB1B_XRF\XRF data\L000085.spe",596,6.93,0.018358,-0.022175,0.007306,0.110437,0,0,0,8.86839e+14,"B"
523,1.23,47053,18643,TRUE,0,11,19,6,31,136,119,30,285,111,21,0,77,3681,156,165,76,0,0,85,2591,26,701,0,693,11,0,0,0,252,196,0,0,41,0,29,0,41,31854,5491,"C:\Data\BAS_sjro\Oct_2017\Hermite\HER42-PB\H42-PB1B_XRF\XRF data\L000113.spe",624,6.93,0.018359,-0.022175,0.007424,0.110437,118,0,14,0,"B"
551,1.32,45148,17416,TRUE,13,27,15,12,24,112,121,86,357,114,0,18,77,5762,24,114,147,0,0,18,2331,90,718,0,638,0,0,0,15,168,239,0,0,0,0,66,0,16,28711,5115,"C:\Data\BAS_sjro\Oct_2017\Hermite\HER42-PB\H42-PB1B_XRF\XRF data\L000141.spe",652,6.97,0.018358,-0.022175,0.007694,0.110437,0,83,12,0,"B"
579,1.27,47485,18004,TRUE,0,17,5,12,30,155,127,61,405,139,22,0,134,6316,99,204,94,0,0,56,2113,208,887,0,662,0,0,0,4,181,177,0,0,7,0,0,83,15,29746,5526,"C:\Data\BAS_sjro\Oct_2017\Hermite\HER42-PB\H42-PB1B_XRF\XRF data\L000169.spe",680,6.94,0.018342,-0.022175,0.007275,0.110437,0,75,0,0,"B"
607,1.2,46818,18466,TRUE,0,11,0,23,21,133,107,53,289,83,24,8,69,4515,99,208,127,0,0,0,2011,60,704,0,785,0,0,0,0,161,217,23,5,41,21,30,76,74,31276,5409,"C:\Data\BAS_sjro\Oct_2017\Hermite\HER42-PB\H42-PB1B_XRF\XRF data\L000197.spe",708,6.94,0.018341,-0.022175,0.007228,0.110437,155,60,10,5.01473e+14,"B"
635,1.37,50951,19430,TRUE,0,8,26,14,39,148,107,48,291,120,4,0,68,6519,126,192,110,0,0,36,2319,226,833,0,521,0,7,0,0,257,265,0,54,0,0,84,111,0,32867,5551,"C:\Data\BAS_sjro\Oct_2017\Hermite\HER42-PB\H42-PB1B_XRF\XRF data\L000225.spe",736,6.97,0.018345,-0.022175,0.00739,0.110437,0,26,17,4.58117e+14,"B"
663,1.32,48656,18175,TRUE,0,12,0,15,41,166,130,45,321,126,5,12,84,5627,140,203,169,0,0,28,2511,196,745,0,770,4,0,0,0,146,173,0,10,42,0,159,160,0,31083,5533,"C:\Data\BAS_sjro\Oct_2017\Hermite\HER42-PB\H42-PB1B_XRF\XRF data\L000253.spe",764,7,0.018349,-0.022175,0.007466,0.110437,0,0,0,1.24664e+15,"B"
691,1.31,49580,17997,TRUE,0,34,9,0,29,139,124,68,272,200,0,25,137,8584,144,197,159,0,0,42,1795,153,819,19,1304,0,0,0,8,170,242,0,52,0,0,17,17,33,29394,5292,"C:\Data\BAS_sjro\Oct_2017\Hermite\HER42-PB\H42-PB1B_XRF\XRF data\L000281.spe",792,7.02,0.018361,-0.022175,0.00752,0.110437,102,39,6,1.11523e+15,"B"
719,1.24,48007,18795,TRUE,0,0,0,8,32,172,100,40,259,48,17,30,65,4346,71,176,207,20,0,18,2208,268,806,0,690,0,0,0,0,173,310,0,67,12,0,60,109,33,31868,5754,"C:\Data\BAS_sjro\Oct_2017\Hermite\HER42-PB\H42-PB1B_XRF\XRF data\L000309.spe",820,7.03,0.018359,-0.022175,0.007465,0.110437,40,108,31,1.10496e+15,"B"
747,1.27,45306,17326,TRUE,12,0,0,0,38,123,133,37,305,74,16,27,73,4905,130,194,176,0,0,78,1830,57,634,0,879,8,0,0,0,265,202,0,0,11,0,98,0,56,29644,5194,"C:\Data\BAS_sjro\Oct_2017\Hermite\HER42-PB\H42-PB1B_XRF\XRF data\L000337.spe",848,7.05,0.01834,-0.022175,0.007361,0.110437,107,83,0,9.78149e+14,"B"
775,1.3,46255,16988,TRUE,0,34,10,11,42,143,149,47,369,212,0,16,111,8572,58,209,144,29,0,0,1888,92,1061,0,530,0,0,0,0,206,228,0,15,19,0,0,0,78,26708,5113,"C:\Data\BAS_sjro\Oct_2017\Hermite\HER42-PB\H42-PB1B_XRF\XRF data\L000365.spe",876,7.04,0.01835,-0.022175,0.007329,0.110437,161,87,7,1.75424e+15,"B"
803,1.29,44008,15114,TRUE,6,14,13,10,36,120,121,127,430,211,28,23,170,9309,220,127,59,0,0,124,1756,313,1147,0,618,0,0,0,0,195,212,0,0,0,0,196,71,10,23538,4781,"C:\Data\BAS_sjro\Oct_2017\Hermite\HER42-PB\H42-PB1B_XRF\XRF data\L000393.spe",904,7.04,0.018354,-0.022175,0.007481,0.110437,23,0,14,0,"B"
820,1.32,45364,15919,TRUE,10,49,22,16,46,136,87,113,577,200,0,32,169,10619,166,134,76,0,0,134,1770,136,1283,0,487,0,0,0,0,202,241,35,0,0,0,163,0,100,23451,4720,"C:\Data\BAS_sjro\Oct_2017\Hermite\HER42-PB\H42-PB1C_XRF\XRF data\L000010.spe",1021,6.92,0.01836,-0.022175,0.007151,0.110437,190,68,0,7.32736e+14,"C"
834,1.34,51527,17696,TRUE,9,21,25,24,56,133,102,158,741,323,28,34,182,13723,95,175,114,28,0,32,2139,106,1050,0,578,0,0,0,0,283,322,0,0,0,0,66,0,132,25759,5078,"C:\Data\BAS_sjro\Oct_2017\Hermite\HER42-PB\H42-PB1C_XRF\XRF data\L000024.spe",1035,6.96,0.018358,-0.022175,0.007315,0.110437,11,110,0,0,"C"
848,1.38,48075,16729,TRUE,0,28,12,5,45,156,86,97,477,212,36,7,126,12701,192,202,190,0,0,50,1996,179,1204,0,689,0,0,0,0,175,230,0,57,54,0,131,37,43,23925,4718,"C:\Data\BAS_sjro\Oct_2017\Hermite\HER42-PB\H42-PB1C_XRF\XRF data\L000038.spe",1049,7,0.018358,-0.022175,0.007231,0.110437,15,49,13,1.24288e+15,"C"
862,1.17,53215,15670,TRUE,0,0,17,8,33,135,113,183,882,789,58,35,358,21230,89,175,205,41,0,57,1315,88,1470,0,611,0,12,0,0,153,193,0,0,0,5,66,38,67,20172,4586,"C:\Data\BAS_sjro\Oct_2017\Hermite\HER42-PB\H42-PB1C_XRF\XRF data\L000052.spe",1063,6.99,0.018358,-0.022175,0.007294,0.110437,31,140,4,0,"C"
876,1.35,49178,17112,TRUE,0,17,8,20,49,163,107,94,576,247,29,25,162,11969,90,181,111,0,0,109,1983,93,926,0,501,0,0,0,15,313,247,0,0,0,0,80,0,80,25936,5047,"C:\Data\BAS_sjro\Oct_2017\Hermite\HER42-PB\H42-PB1C_XRF\XRF data\L000066.spe",1077,7,0.018359,-0.022175,0.007495,0.110437,0,90,0,0,"C"
901,1.34,48618,18746,TRUE,0,7,10,0,19,154,98,47,237,143,23,48,124,6290,5,198,142,0,0,16,2432,98,732,0,604,0,0,0,0,229,255,0,0,0,0,30,13,0,31093,5492,"C:\Data\BAS_sjro\Oct_2017\Hermite\HER42-PB\H42-PB1C_XRF\XRF data\L000091.spe",1102,6.97,0.018355,-0.022175,0.00754,0.110437,79,145,0,0,"C"
929,1.26,51317,18914,TRUE,43,47,26,12,47,177,125,93,404,173,45,10,142,7927,0,163,17,0,0,176,2378,74,710,0,833,0,0,0,0,271,166,0,0,0,0,155,75,132,31593,5276,"C:\Data\BAS_sjro\Oct_2017\Hermite\HER42-PB\H42-PB1C_XRF\XRF data\L000119.spe",1130,6.94,0.018358,-0.022175,0.007527,0.110437,27,91,11,1.89884e+15,"C"
957,1.27,52581,19733,TRUE,0,17,17,0,22,140,106,102,408,229,9,23,144,7899,182,240,100,0,0,0,2504,28,944,0,748,0,0,0,0,236,327,0,11,0,0,9,66,0,32301,5650,"C:\Data\BAS_sjro\Oct_2017\Hermite\HER42-PB\H42-PB1C_XRF\XRF data\L000147.spe",1158,6.9,0.018353,-0.022175,0.007341,0.110437,119,6,21,1.46834e+15,"C"
985,1.35,46170,17276,TRUE,55,63,33,31,39,129,128,77,483,211,7,0,142,6842,0,165,112,0,0,50,2103,0,868,13,690,0,0,0,11,202,218,0,0,0,0,56,60,0,28550,4822,"C:\Data\BAS_sjro\Oct_2017\Hermite\HER42-PB\H42-PB1C_XRF\XRF data\L000175.spe",1186,6.89,0.018362,-0.022175,0.007404,0.110437,10,94,5,7.96257e+14,"C"
1013,1.46,48443,18676,TRUE,0,0,0,4,25,141,125,39,252,108,8,20,87,5179,71,175,106,0,0,21,2771,21,782,0,720,5,0,0,0,202,215,0,0,0,0,213,82,0,31559,5487,"C:\Data\BAS_sjro\Oct_2017\Hermite\HER42-PB\H42-PB1C_XRF\XRF data\L000203.spe",1214,6.96,0.018359,-0.022175,0.007339,0.110437,25,5,6,0,"C"
1041,1.23,50503,18633,TRUE,17,15,13,5,39,163,104,72,451,134,6,0,135,7734,190,260,174,57,0,0,1972,142,1091,0,780,0,0,0,7,218,245,59,90,83,0,98,115,78,30085,5846,"C:\Data\BAS_sjro\Oct_2017\Hermite\HER42-PB\H42-PB1C_XRF\XRF data\L000231.spe",1242,6.97,0.018354,-0.022175,0.007547,0.110437,25,9,0,2.47628e+15,"C"
1069,1.22,47299,17896,TRUE,0,9,15,0,40,131,107,95,409,152,16,9,126,6674,18,223,119,41,0,0,1930,209,719,0,599,0,0,0,0,220,217,0,31,23,0,9,64,0,29538,5495,"C:\Data\BAS_sjro\Oct_2017\Hermite\HER42-PB\H42-PB1C_XRF\XRF data\L000259.spe",1270,6.96,0.018358,-0.022175,0.007605,0.110437,61,87,17,0,"C"
1097,1.34,44522,16390,TRUE,0,9,0,0,22,151,100,79,469,177,26,27,98,8241,67,126,88,0,0,33,2157,172,875,0,597,0,0,0,0,212,297,0,0,0,0,119,0,0,25488,4892,"C:\Data\BAS_sjro\Oct_2017\Hermite\HER42-PB\H42-PB1C_XRF\XRF data\L000287.spe",1298,6.94,0.018359,-0.022175,0.007328,0.110437,0,77,22,0,"C"
1125,1.29,48862,16647,TRUE,35,27,12,9,30,151,91,98,588,230,0,47,143,12904,184,179,100,0,0,152,1897,15,1307,0,566,0,0,0,0,214,257,12,0,0,0,0,116,0,24529,4969,"C:\Data\BAS_sjro\Oct_2017\Hermite\HER42-PB\H42-PB1C_XRF\XRF data\L000315.spe",1326,6.89,0.018351,-0.022175,0.007375,0.110437,0,34,28,0,"C"
1153,1.47,53018,17926,TRUE,19,6,22,0,31,123,108,80,505,198,9,54,137,13841,117,164,108,46,0,29,2330,237,742,0,690,0,0,0,0,212,226,0,9,0,0,25,113,65,27399,5323,"C:\Data\BAS_sjro\Oct_2017\Hermite\HER42-PB\H42-PB1C_XRF\XRF data\L000343.spe",1354,6.81,0.018349,-0.022175,0.007077,0.110437,50,69,15,0,"C"
1181,1.27,53007,18367,TRUE,5,0,0,5,28,186,93,48,400,125,31,0,94,12588,96,213,161,0,0,65,2478,163,867,0,680,0,0,0,0,170,253,0,0,0,0,64,0,0,28811,5322,"C:\Data\BAS_sjro\Oct_2017\Hermite\HER42-PB\H42-PB1C_XRF\XRF data\L000371.spe",1382,6.82,0.018353,-0.022175,0.007106,0.110437,61,26,13,0,"C"
1209,1.32,53368,19480,TRUE,23,42,40,21,52,121,116,97,450,140,9,17,95,8198,86,217,96,0,0,40,2957,101,685,0,693,0,0,0,0,163,216,0,14,0,0,40,0,29,32890,5581,"C:\Data\BAS_sjro\Oct_2017\Hermite\HER42-PB\H42-PB1C_XRF\XRF data\L000399.spe",1410,6.83,0.018355,-0.022175,0.007365,0.110437,139,73,12,2.42298e+15,"C"
1223,1.32,48067,19356,TRUE,0,10,23,5,26,136,134,33,332,82,34,0,57,2783,78,202,138,0,0,102,2410,23,784,0,591,0,0,0,0,154,226,0,39,0,0,140,128,25,33898,5474,"C:\Data\BAS_sjro\Oct_2017\Hermite\HER42-PB\H42-PB1D_XRF\XRF data\L000013.spe",24,6.67,0.01836,-0.022175,0.007311,0.110437,0,0,26,0,"D"
1237,1.23,51983,21366,TRUE,0,46,10,5,42,116,100,24,259,60,8,0,8,1491,76,203,156,0,0,24,2566,90,378,0,763,0,0,0,0,203,225,0,93,28,0,33,244,40,38626,6066,"C:\Data\BAS_sjro\Oct_2017\Hermite\HER42-PB\H42-PB1D_XRF\XRF data\L000027.spe",38,6.65,0.018358,-0.022175,0.007396,0.110437,0,0,11,0,"D"
1251,1.31,54442,21097,TRUE,26,45,22,18,51,125,110,58,432,126,18,14,85,4616,40,190,72,0,0,6,3059,0,424,0,864,0,0,0,0,197,215,0,30,17,0,105,35,0,37353,6082,"C:\Data\BAS_sjro\Oct_2017\Hermite\HER42-PB\H42-PB1D_XRF\XRF data\L000041.spe",52,6.75,0.018353,-0.022175,0.007449,0.110437,7,93,11,0,"D"
1265,1.32,53885,21212,TRUE,0,15,5,0,54,150,108,48,326,70,9,17,126,5118,60,216,126,0,0,0,2787,135,548,0,766,0,0,0,4,256,340,0,0,0,0,60,22,0,36499,6020,"C:\Data\BAS_sjro\Oct_2017\Hermite\HER42-PB\H42-PB1D_XRF\XRF data\L000055.spe",66,6.7,0.018356,-0.022175,0.007441,0.110437,0,64,0,1.08989e+15,"D"
1279,1.35,55184,22462,TRUE,0,10,4,0,27,150,81,23,252,60,0,10,41,3767,30,255,192,0,0,123,2513,97,284,0,774,0,0,0,0,226,305,0,0,0,0,33,11,0,39868,6048,"C:\Data\BAS_sjro\Oct_2017\Hermite\HER42-PB\H42-PB1D_XRF\XRF data\L000069.spe",80,6.73,0.018361,-0.022175,0.007233,0.110437,0,99,0,1.91194e+15,"D"
1307,1.27,52370,21013,TRUE,8,16,5,12,44,128,101,10,313,55,0,22,29,3342,190,244,88,20,0,74,2281,36,376,0,882,0,0,0,0,231,295,13,24,0,0,41,234,25,37316,5915,"C:\Data\BAS_sjro\Oct_2017\Hermite\HER42-PB\H42-PB1D_XRF\XRF data\L000097.spe",108,6.75,0.018359,-0.022175,0.007463,0.110437,0,0,22,5.65469e+14,"D"
1335,1.18,52555,19618,TRUE,0,7,0,0,29,145,124,104,777,143,18,42,75,5210,154,184,74,0,0,71,2151,0,1054,0,835,0,8,0,6,193,214,0,96,36,0,0,154,170,34389,5926,"C:\Data\BAS_sjro\Oct_2017\Hermite\HER42-PB\H42-PB1D_XRF\XRF data\L000125.spe",136,6.73,0.018354,-0.022175,0.007497,0.110437,166,0,4,0,"D"
1363,1.36,52344,21138,TRUE,16,16,7,9,37,117,105,8,333,17,0,22,12,1519,123,209,128,0,0,99,2133,0,423,0,720,0,0,0,21,177,168,0,66,25,52,213,111,0,39130,6230,"C:\Data\BAS_sjro\Oct_2017\Hermite\HER42-PB\H42-PB1D_XRF\XRF data\L000153.spe",164,6.57,0.018339,-0.022175,0.007708,0.110437,98,0,4,0,"D"
1391,1.35,52597,21524,TRUE,0,0,0,0,27,147,98,28,281,24,0,0,33,2328,97,262,134,0,0,110,2453,0,484,0,928,0,0,0,17,273,367,0,0,0,0,22,0,0,38413,6062,"C:\Data\BAS_sjro\Oct_2017\Hermite\HER42-PB\H42-PB1D_XRF\XRF data\L000181.spe",192,6.74,0.018343,-0.022175,0.007366,0.110437,9,0,0,9.72464e+14,"D"
1419,1.31,50835,20360,TRUE,0,30,14,10,36,129,136,48,266,49,0,11,25,1884,87,178,100,11,0,171,2635,0,257,0,766,0,0,5,8,229,238,0,51,0,0,77,24,0,37328,5988,"C:\Data\BAS_sjro\Oct_2017\Hermite\HER42-PB\H42-PB1D_XRF\XRF data\L000209.spe",220,6.73,0.01833,-0.022175,0.007632,0.110437,44,35,14,0,"D"
1447,1.26,54941,22373,TRUE,20,24,0,5,43,144,102,12,202,21,10,0,44,1616,98,200,107,0,0,47,3331,70,252,0,938,0,0,0,0,197,296,0,118,61,0,169,78,0,40373,6272,"C:\Data\BAS_sjro\Oct_2017\Hermite\HER42-PB\H42-PB1D_XRF\XRF data\L000237.spe",248,6.71,0.018343,-0.022175,0.007418,0.110437,91,20,15,2.2438e+14,"D"
1475,1.23,52144,21262,TRUE,0,0,0,17,19,138,105,8,195,35,0,13,0,787,0,218,69,0,0,64,2865,0,282,0,839,0,0,0,0,188,234,0,32,0,0,106,17,40,39557,6269,"C:\Data\BAS_sjro\Oct_2017\Hermite\HER42-PB\H42-PB1D_XRF\XRF data\L000265.spe",276,6.75,0.01835,-0.022175,0.007363,0.110437,47,16,12,4.22157e+14,"D"
1503,1.39,51418,21107,TRUE,0,32,0,8,23,130,102,11,166,36,18,9,13,814,11,214,82,0,0,0,2930,115,454,0,832,0,0,0,0,264,244,0,0,0,0,49,154,0,38685,5977,"C:\Data\BAS_sjro\Oct_2017\Hermite\HER42-PB\H42-PB1D_XRF\XRF data\L000293.spe",304,6.7,0.018344,-0.022175,0.00764,0.110437,45,43,34,0,"D"
1531,1.25,49016,18796,TRUE,0,16,0,13,31,134,88,43,371,72,7,0,121,4684,71,192,122,0,0,0,2450,0,1087,0,852,0,0,0,0,192,262,0,0,0,0,0,77,81,32309,5741,"C:\Data\BAS_sjro\Oct_2017\Hermite\HER42-PB\H42-PB1D_XRF\XRF data\L000321.spe",332,6.78,0.018349,-0.022175,0.007531,0.110437,0,53,0,2.53125e+15,"D"
1559,1.3,46429,18415,TRUE,31,22,9,0,26,143,140,52,343,121,0,60,126,3903,118,167,144,0,0,76,2145,93,854,0,602,0,0,0,0,285,253,0,5,0,0,0,7,0,31016,5612,"C:\Data\BAS_sjro\Oct_2017\Hermite\HER42-PB\H42-PB1D_XRF\XRF data\L000349.spe",360,6.75,0.018366,-0.022175,0.007581,0.110437,76,0,17,0,"D"
1587,1.36,48888,19029,TRUE,0,12,11,9,43,130,122,78,366,142,0,9,78,4652,96,137,120,0,0,96,1940,17,985,0,614,0,0,0,0,217,237,0,0,10,0,0,122,65,32803,5680,"C:\Data\BAS_sjro\Oct_2017\Hermite\HER42-PB\H42-PB1D_XRF\XRF data\L000377.spe",388,6.76,0.018368,-0.022175,0.007272,0.110437,97,0,6,0,"D"
1612,1.27,51705,20773,TRUE,43,25,25,32,57,141,107,47,381,110,0,47,93,2988,64,170,138,0,8,123,2735,29,469,0,531,0,0,0,0,223,334,0,72,0,0,7,116,0,36596,5943,"C:\Data\BAS_sjro\Oct_2017\Hermite\HER42-PB\H42-PB1E_XRF\XRF data\L000002.spe",503,6.67,0.018352,-0.022175,0.007252,0.110437,51,7,15,5.17767e+14,"E"
1626,1.36,53023,20763,TRUE,7,21,0,21,47,146,76,28,369,154,10,5,66,3826,97,194,104,0,0,23,2917,179,650,0,766,0,0,0,0,243,279,0,46,62,0,36,31,0,36532,5977,"C:\Data\BAS_sjro\Oct_2017\Hermite\HER42-PB\H42-PB1E_XRF\XRF data\L000016.spe",517,6.78,0.018356,-0.022175,0.007336,0.110437,111,20,17,2.42655e+15,"E"
1640,1.41,52365,20898,TRUE,0,0,9,0,38,134,116,43,271,77,0,0,51,3369,53,221,168,0,0,0,2633,154,305,0,971,0,0,0,6,217,257,0,71,26,0,138,0,6,36948,5898,"C:\Data\BAS_sjro\Oct_2017\Hermite\HER42-PB\H42-PB1E_XRF\XRF data\L000030.spe",531,6.79,0.018357,-0.022175,0.007523,0.110437,185,27,35,3.81867e+14,"E"
1654,1.31,52544,19943,TRUE,0,25,21,10,49,152,115,49,295,91,24,43,70,6864,148,233,116,0,0,47,2527,0,553,0,838,0,4,0,0,194,241,0,24,0,0,0,113,0,33969,5729,"C:\Data\BAS_sjro\Oct_2017\Hermite\HER42-PB\H42-PB1E_XRF\XRF data\L000044.spe",545,6.86,0.01835,-0.022175,0.007373,0.110437,0,35,0,2.76995e+15,"E"
1668,1.34,50308,19152,TRUE,12,22,0,24,45,146,117,42,241,67,0,23,39,6166,134,184,174,0,18,12,2232,0,588,0,710,0,0,0,0,163,314,0,74,0,0,86,26,0,33016,5615,"C:\Data\BAS_sjro\Oct_2017\Hermite\HER42-PB\H42-PB1E_XRF\XRF data\L000058.spe",559,6.86,0.018347,-0.022175,0.007509,0.110437,18,10,21,1.61424e+15,"E"
1685,1.22,51960,20564,TRUE,0,24,14,0,25,154,92,29,241,83,0,12,18,4290,228,223,107,47,0,0,2244,56,343,0,748,0,0,0,0,267,261,0,49,30,0,0,52,0,36274,6011,"C:\Data\BAS_sjro\Oct_2017\Hermite\HER42-PB\H42-PB1E_XRF\XRF data\L000075.spe",576,6.83,0.018346,-0.022175,0.007501,0.110437,38,0,6,0,"E"
1713,1.28,51585,19974,TRUE,5,27,0,33,75,125,112,41,305,59,31,0,64,3695,162,220,198,16,0,107,2442,0,421,0,809,6,0,0,0,245,255,50,28,0,0,136,0,0,35996,5868,"C:\Data\BAS_sjro\Oct_2017\Hermite\HER42-PB\H42-PB1E_XRF\XRF data\L000103.spe",604,6.86,0.018345,-0.022175,0.007413,0.110437,54,0,12,1.43866e+15,"E"
1741,1.21,50291,19895,TRUE,23,44,31,12,35,121,122,31,273,10,0,19,32,2322,45,192,82,0,0,47,2588,81,644,0,773,6,0,7,26,182,210,0,89,0,0,30,0,0,36482,5581,"C:\Data\BAS_sjro\Oct_2017\Hermite\HER42-PB\H42-PB1E_XRF\XRF data\L000131.spe",632,6.79,0.018355,-0.022175,0.007307,0.110437,151,46,14,0,"E"
1769,1.33,50261,20113,TRUE,0,23,25,0,29,112,122,26,214,98,23,0,78,2301,87,241,114,0,0,0,2587,48,364,0,793,0,0,0,0,226,259,0,34,0,0,25,188,0,36297,5947,"C:\Data\BAS_sjro\Oct_2017\Hermite\HER42-PB\H42-PB1E_XRF\XRF data\L000159.spe",660,6.77,0.018356,-0.022175,0.007565,0.110437,0,0,18,0,"E"
1797,1.39,49938,19056,TRUE,0,17,37,14,48,109,109,37,276,65,8,0,97,3529,82,141,173,0,0,67,2310,244,775,0,906,0,0,0,0,214,260,0,0,29,0,117,32,0,34126,5917,"C:\Data\BAS_sjro\Oct_2017\Hermite\HER42-PB\H42-PB1E_XRF\XRF data\L000187.spe",688,6.78,0.018345,-0.022175,0.007601,0.110437,199,33,21,0,"E"
1825,1.24,53254,20397,TRUE,0,31,19,0,39,129,111,44,245,78,7,19,60,4720,144,214,165,0,0,77,2801,31,616,0,804,0,0,0,0,230,351,0,0,0,0,90,48,132,35986,5937,"C:\Data\BAS_sjro\Oct_2017\Hermite\HER42-PB\H42-PB1E_XRF\XRF data\L000215.spe",716,6.79,0.018341,-0.022175,0.007417,0.110437,126,62,10,2.63135e+15,"E"
1853,1.31,52137,20945,TRUE,11,21,0,19,52,148,123,46,229,24,17,9,65,2063,70,197,98,0,0,64,2539,131,523,0,883,8,0,0,0,314,221,0,52,96,0,103,0,0,37710,6067,"C:\Data\BAS_sjro\Oct_2017\Hermite\HER42-PB\H42-PB1E_XRF\XRF data\L000243.spe",744,6.83,0.018356,-0.022175,0.007474,0.110437,234,30,14,0,"E"
1881,1.26,50438,20326,TRUE,0,17,0,19,31,150,118,13,211,38,0,0,24,1833,54,208,82,0,0,99,2170,140,281,0,944,0,0,0,0,166,249,0,63,15,0,89,93,0,37516,5791,"C:\Data\BAS_sjro\Oct_2017\Hermite\HER42-PB\H42-PB1E_XRF\XRF data\L000271.spe",772,6.87,0.018354,-0.022175,0.007531,0.110437,24,36,15,1.13192e+15,"E"
1909,1.26,51726,21419,TRUE,11,34,0,0,27,127,117,0,194,31,0,0,30,1605,154,169,105,0,0,132,2077,68,383,0,979,0,0,0,0,248,247,0,22,0,0,51,0,0,38874,6004,"C:\Data\BAS_sjro\Oct_2017\Hermite\HER42-PB\H42-PB1E_XRF\XRF data\L000299.spe",800,6.81,0.018345,-0.022175,0.007235,0.110437,37,0,34,0,"E"
1937,1.4,52175,20930,TRUE,20,22,0,0,48,95,98,14,249,60,0,0,21,2212,46,217,142,52,0,83,2092,165,532,0,975,0,0,0,0,253,246,0,0,12,13,217,162,0,37888,6209,"C:\Data\BAS_sjro\Oct_2017\Hermite\HER42-PB\H42-PB1E_XRF\XRF data\L000327.spe",828,6.77,0.018346,-0.022175,0.007377,0.110437,32,26,31,0,"E"
1965,1.34,49625,19884,TRUE,0,8,19,13,33,112,128,41,317,48,0,28,19,2161,13,167,124,0,0,130,2594,0,512,0,724,0,10,0,15,199,162,0,24,9,0,182,259,111,36032,5431,"C:\Data\BAS_sjro\Oct_2017\Hermite\HER42-PB\H42-PB1E_XRF\XRF data\L000355.spe",856,6.77,0.018355,-0.022175,0.007348,0.110437,0,29,16,0,"E"
1993,1.11,50896,19852,TRUE,0,34,0,0,44,148,114,56,354,76,0,22,111,5242,25,203,129,11,0,0,2408,193,619,0,733,0,0,0,8,214,224,0,87,69,0,170,0,0,34075,5498,"C:\Data\BAS_sjro\Oct_2017\Hermite\HER42-PB\H42-PB1E_XRF\XRF data\L000383.spe",884,6.76,0.018359,-0.022175,0.007362,0.110437,29,79,16,0,"E"
2015,1.31,51957,19825,TRUE,0,32,4,6,48,148,125,46,301,152,5,41,99,6759,130,242,64,0,0,30,3160,0,613,0,779,0,0,0,23,203,285,0,25,0,0,10,92,0,32957,5578,"C:\Data\BAS_sjro\Oct_2017\Hermite\HER42-PB\H42-PB1F_XRF\XRF data\L000005.spe",1016,7.07,0.018355,-0.022175,0.007252,0.110437,0,56,14,0,"F"
2029,1.21,52583,19851,TRUE,37,48,36,25,16,186,119,34,248,42,8,13,95,4841,46,166,125,0,0,0,3369,155,465,0,528,0,0,0,5,212,233,0,114,22,0,187,85,0,35421,5702,"C:\Data\BAS_sjro\Oct_2017\Hermite\HER42-PB\H42-PB1F_XRF\XRF data\L000019.spe",1030,7.05,0.018362,-0.022175,0.007698,0.110437,0,44,38,1.12842e+15,"F"
2043,1.19,52429,20111,TRUE,16,35,7,13,18,124,75,35,273,57,12,0,55,4890,65,243,135,0,0,151,3216,0,667,82,588,0,0,0,4,223,299,0,15,26,0,42,0,0,35115,5948,"C:\Data\BAS_sjro\Oct_2017\Hermite\HER42-PB\H42-PB1F_XRF\XRF data\L000033.spe",1044,7.04,0.018357,-0.022175,0.007652,0.110437,0,50,25,0,"F"
2057,1.41,47919,18834,TRUE,0,10,0,10,16,139,103,48,235,65,6,18,46,3482,99,212,124,10,0,104,2653,171,837,0,746,0,0,0,31,246,203,0,0,9,0,171,82,14,32512,5443,"C:\Data\BAS_sjro\Oct_2017\Hermite\HER42-PB\H42-PB1F_XRF\XRF data\L000047.spe",1058,7.05,0.018366,-0.022175,0.007652,0.110437,74,11,5,0,"F"
2071,1.42,50889,19822,TRUE,7,29,16,0,24,167,107,74,345,104,0,36,78,3700,75,139,35,0,0,119,2891,118,891,0,839,0,0,0,0,298,194,0,0,59,0,189,48,6,34187,6004,"C:\Data\BAS_sjro\Oct_2017\Hermite\HER42-PB\H42-PB1F_XRF\XRF data\L000061.spe",1072,7.06,0.018361,-0.022175,0.007742,0.110437,110,0,25,0,"F"
2091,1.33,49967,19755,TRUE,0,18,4,7,39,156,87,27,256,44,28,0,75,2525,69,246,183,0,0,87,2619,194,646,0,834,0,0,0,0,176,340,0,25,0,0,103,22,0,35169,5927,"C:\Data\BAS_sjro\Oct_2017\Hermite\HER42-PB\H42-PB1F_XRF\XRF data\L000081.spe",1092,7.05,0.018363,-0.022175,0.007606,0.110437,61,49,22,1.74214e+15,"F"
2119,1.33,51531,20684,TRUE,16,22,14,0,41,186,115,25,282,94,22,8,55,2602,0,164,69,0,0,192,2978,26,542,0,731,0,0,0,0,315,245,0,0,69,0,107,158,0,36522,5931,"C:\Data\BAS_sjro\Oct_2017\Hermite\HER42-PB\H42-PB1F_XRF\XRF data\L000109.spe",1120,7.07,0.018346,-0.022175,0.007456,0.110437,0,89,0,1.42519e+15,"F"
2147,1.14,51560,20224,TRUE,12,21,0,0,50,151,96,21,250,64,0,7,12,3408,0,223,108,0,0,156,3245,140,553,0,711,0,0,0,0,232,203,0,0,83,0,64,141,0,35767,5842,"C:\Data\BAS_sjro\Oct_2017\Hermite\HER42-PB\H42-PB1F_XRF\XRF data\L000137.spe",1148,7.07,0.018354,-0.022175,0.007679,0.110437,0,108,8,0,"F"
2175,1.45,52172,19411,TRUE,0,0,28,11,30,160,125,60,374,135,18,19,111,6246,21,194,87,0,0,0,2764,175,828,0,647,0,0,0,0,211,239,0,0,0,0,108,54,87,33692,5748,"C:\Data\BAS_sjro\Oct_2017\Hermite\HER42-PB\H42-PB1F_XRF\XRF data\L000165.spe",1176,7.05,0.018366,-0.022175,0.007753,0.110437,0,93,12,0,"F"
2203,1.29,48444,18985,TRUE,17,38,8,21,37,170,113,47,276,91,15,12,84,4087,24,206,83,0,0,74,2532,63,601,0,703,0,0,0,9,167,213,0,89,41,0,120,0,0,32948,5555,"C:\Data\BAS_sjro\Oct_2017\Hermite\HER42-PB\H42-PB1F_XRF\XRF data\L000193.spe",1204,7.04,0.018366,-0.022175,0.007436,0.110437,0,115,21,3.0627e+15,"F"
2231,1.31,50588,19968,TRUE,6,17,13,0,48,119,119,31,334,52,0,43,50,2352,30,239,81,0,0,0,2609,98,618,0,710,0,0,0,5,212,321,0,76,0,0,151,230,0,36251,5773,"C:\Data\BAS_sjro\Oct_2017\Hermite\HER42-PB\H42-PB1F_XRF\XRF data\L000221.spe",1232,7.05,0.018363,-0.022175,0.007627,0.110437,0,71,29,0,"F"
2259,1.27,48126,19319,TRUE,0,0,7,0,16,111,149,30,285,54,16,0,51,2201,73,215,91,12,0,106,2366,0,635,0,641,0,7,0,0,231,264,0,40,29,0,60,69,40,34619,5684,"C:\Data\BAS_sjro\Oct_2017\Hermite\HER42-PB\H42-PB1F_XRF\XRF data\L000249.spe",1260,6.96,0.018366,-0.022175,0.007467,0.110437,24,19,7,1.14872e+15,"F"
2287,1.31,50284,19747,TRUE,0,0,26,18,47,124,106,28,321,99,11,14,93,3552,119,272,80,0,0,106,3856,168,546,0,661,0,4,0,0,202,236,0,59,27,0,217,0,0,33733,5559,"C:\Data\BAS_sjro\Oct_2017\Hermite\HER42-PB\H42-PB1F_XRF\XRF data\L000277.spe",1288,7,0.01836,-0.022175,0.007453,0.110437,0,0,6,0,"F"
2315,1.37,50042,19524,TRUE,0,0,0,26,35,110,95,39,345,111,13,0,38,4325,51,208,187,7,0,0,3158,115,620,0,703,0,0,0,0,215,264,0,0,0,0,0,0,0,33886,5491,"C:\Data\BAS_sjro\Oct_2017\Hermite\HER42-PB\H42-PB1F_XRF\XRF data\L000305.spe",1316,6.98,0.018366,-0.022175,0.007543,0.110437,0,33,0,0,"F"
2343,1.48,50248,19387,TRUE,0,12,0,0,52,147,106,58,257,85,11,13,59,5109,64,147,72,0,0,8,2794,73,682,0,625,0,0,0,0,262,317,0,0,0,0,35,132,0,33587,5454,"C:\Data\BAS_sjro\Oct_2017\Hermite\HER42-PB\H42-PB1F_XRF\XRF data\L000333.spe",1344,6.95,0.018369,-0.022175,0.007558,0.110437,87,0,8,6.7878e+14,"F"
2371,1.19,40315,15085,TRUE,0,0,16,7,39,141,111,75,379,106,6,0,84,5527,96,197,60,0,0,96,1676,210,805,0,557,0,0,0,0,174,243,0,0,0,0,54,39,0,25079,4425,"C:\Data\BAS_sjro\Oct_2017\Hermite\HER42-PB\H42-PB1F_XRF\XRF data\L000361.spe",1372,6.94,0.018359,-0.022175,0.00745,0.110437,113,63,18,0,"F"
2399,1.27,48486,18517,TRUE,0,39,11,13,43,119,117,72,667,112,4,30,51,4265,87,189,133,0,0,46,2173,151,1042,0,769,9,0,0,20,214,186,0,0,15,0,76,92,12,32225,5463,"C:\Data\BAS_sjro\Oct_2017\Hermite\HER42-PB\H42-PB1F_XRF\XRF data\L000389.spe",1400,6.9,0.018349,-0.022175,0.007361,0.110437,41,54,13,7.61606e+14,"F"
2418,1.31,48078,18460,TRUE,0,30,11,16,72,118,123,62,405,115,0,11,96,5919,41,161,139,4,0,97,2313,73,953,0,606,0,0,0,10,215,300,0,0,0,0,43,94,0,30704,5347,"C:\Data\BAS_sjro\Oct_2017\Hermite\HER42-PB\H42-PB1G_XRF\XRF data\L000008.spe",19,6.69,0.018356,-0.022175,0.007454,0.110437,0,68,11,1.57344e+15,"G"
2432,1.48,49062,18123,TRUE,0,12,15,13,59,156,112,37,349,99,10,25,67,7183,62,221,99,0,0,35,1913,189,734,0,712,0,0,0,4,217,348,0,0,0,0,327,135,0,30620,5309,"C:\Data\BAS_sjro\Oct_2017\Hermite\HER42-PB\H42-PB1G_XRF\XRF data\L000022.spe",33,6.69,0.018355,-0.022175,0.007548,0.110437,0,110,0,3.98422e+15,"G"
2446,1.29,49864,19474,TRUE,0,41,0,10,21,103,109,31,299,85,0,5,44,3767,25,197,96,0,0,34,1955,0,668,0,747,0,0,0,0,153,168,0,72,47,0,151,54,101,34897,5954,"C:\Data\BAS_sjro\Oct_2017\Hermite\HER42-PB\H42-PB1G_XRF\XRF data\L000036.spe",47,6.75,0.01835,-0.022175,0.007442,0.110437,30,27,20,0,"G"
2460,1.38,52569,20851,TRUE,0,47,28,23,44,147,117,23,280,25,31,29,30,3858,73,183,108,0,0,38,2226,0,280,0,919,4,0,0,10,197,293,0,25,0,0,211,0,0,37534,5786,"C:\Data\BAS_sjro\Oct_2017\Hermite\HER42-PB\H42-PB1G_XRF\XRF data\L000050.spe",61,6.73,0.018349,-0.022175,0.007195,0.110437,0,78,13,1.12583e+15,"G"
2479,1.23,52065,21365,TRUE,25,44,12,11,48,163,130,28,151,32,14,4,40,1579,43,156,112,0,0,42,2113,0,357,0,832,10,0,0,0,190,180,0,165,48,0,0,13,0,39545,5978,"C:\Data\BAS_sjro\Oct_2017\Hermite\HER42-PB\H42-PB1G_XRF\XRF data\L000069.spe",80,6.76,0.018341,-0.022175,0.007406,0.110437,0,63,19,4.13733e+14,"G"
2507,1.32,54201,21566,TRUE,15,18,6,8,32,123,97,14,218,16,0,26,18,1829,131,165,146,0,0,50,2263,105,551,0,1106,0,0,6,0,229,217,0,28,0,0,0,72,15,40334,6245,"C:\Data\BAS_sjro\Oct_2017\Hermite\HER42-PB\H42-PB1G_XRF\XRF data\L000097.spe",108,6.65,0.018335,-0.022175,0.007537,0.110437,118,0,0,2.17487e+15,"G"
2535,1.22,50856,20810,TRUE,0,0,30,0,44,132,84,41,270,79,14,26,27,2290,133,99,99,0,0,52,2299,0,498,0,596,0,0,0,0,246,231,0,0,13,0,48,111,20,37523,5840,"C:\Data\BAS_sjro\Oct_2017\Hermite\HER42-PB\H42-PB1G_XRF\XRF data\L000125.spe",136,6.6,0.018339,-0.022175,0.007468,0.110437,11,0,28,0,"G"
2563,1.29,50463,20764,TRUE,0,0,8,0,27,138,99,19,210,41,0,0,38,2517,47,149,75,0,0,19,2209,180,227,0,748,0,0,0,0,250,282,0,62,0,0,26,36,0,37003,5979,"C:\Data\BAS_sjro\Oct_2017\Hermite\HER42-PB\H42-PB1G_XRF\XRF data\L000153.spe",164,6.71,0.018344,-0.022175,0.007297,0.110437,74,18,17,1.76357e+15,"G"
2591,1.17,52874,21835,TRUE,12,16,0,10,32,133,79,27,236,11,0,28,26,1306,131,230,120,0,28,13,3010,0,412,0,829,0,0,0,5,236,244,0,0,14,0,0,0,0,39225,6232,"C:\Data\BAS_sjro\Oct_2017\Hermite\HER42-PB\H42-PB1G_XRF\XRF data\L000181.spe",192,6.68,0.01834,-0.022175,0.007364,0.110437,229,0,12,0,"G"
2619,1.3,51200,20999,TRUE,0,9,0,7,20,151,113,24,250,31,0,0,24,1400,41,216,123,0,0,172,2693,87,519,0,706,0,0,0,0,253,181,0,0,0,0,5,23,0,38115,6037,"C:\Data\BAS_sjro\Oct_2017\Hermite\HER42-PB\H42-PB1G_XRF\XRF data\L000209.spe",220,6.72,0.018336,-0.022175,0.007306,0.110437,0,13,0,2.94062e+15,"G"
2647,1.23,53351,21712,TRUE,0,0,0,13,36,126,86,38,255,57,8,0,34,1078,60,214,131,0,0,138,3045,168,415,0,678,0,0,0,0,233,297,0,35,57,0,206,113,0,39840,5919,"C:\Data\BAS_sjro\Oct_2017\Hermite\HER42-PB\H42-PB1G_XRF\XRF data\L000237.spe",248,6.68,0.01835,-0.022175,0.007577,0.110437,71,70,5,9.70603e+14,"G"
2675,1.18,51029,20485,TRUE,0,26,0,22,44,119,92,29,215,30,0,4,38,985,80,215,152,0,0,0,3204,47,457,0,765,0,9,0,21,218,238,0,40,84,0,132,104,13,37541,6083,"C:\Data\BAS_sjro\Oct_2017\Hermite\HER42-PB\H42-PB1G_XRF\XRF data\L000265.spe",276,6.71,0.018334,-0.022175,0.007472,0.110437,22,16,16,4.02747e+14,"G"
2703,1.38,54006,22342,TRUE,0,0,0,13,34,146,66,31,247,56,0,40,29,890,88,222,116,0,0,124,3138,19,286,0,1003,0,0,0,0,306,252,0,0,155,67,88,60,0,40083,6379,"C:\Data\BAS_sjro\Oct_2017\Hermite\HER42-PB\H42-PB1G_XRF\XRF data\L000293.spe",304,6.8,0.018327,-0.022175,0.007365,0.110437,68,0,10,0,"G"
2731,1.43,54666,21752,TRUE,0,37,31,17,61,139,119,20,285,66,0,10,48,2682,145,229,245,0,0,47,3172,0,522,0,958,5,5,0,0,189,205,22,62,24,0,16,100,135,38852,6218,"C:\Data\BAS_sjro\Oct_2017\Hermite\HER42-PB\H42-PB1G_XRF\XRF data\L000321.spe",332,6.78,0.018323,-0.022175,0.007691,0.110437,0,29,17,3.01639e+15,"G"
2759,1.22,47576,19086,TRUE,12,22,31,4,51,124,115,46,318,63,11,0,23,1686,34,152,135,0,0,72,2332,10,395,0,829,0,11,0,0,190,245,0,0,19,0,78,80,0,34818,5625,"C:\Data\BAS_sjro\Oct_2017\Hermite\HER42-PB\H42-PB1G_XRF\XRF data\L000349.spe",360,6.71,0.018336,-0.022175,0.007424,0.110437,45,57,26,0,"G"
2787,1.26,53285,21588,TRUE,5,24,22,0,76,160,113,46,383,77,42,7,80,2207,175,232,133,0,0,70,3134,38,423,0,916,10,0,0,6,193,229,0,42,23,0,13,0,0,38240,6009,"C:\Data\BAS_sjro\Oct_2017\Hermite\HER42-PB\H42-PB1G_XRF\XRF data\L000377.spe",388,6.77,0.018338,-0.022175,0.007314,0.110437,157,0,11,0,"G"
2812,1.37,49378,19900,TRUE,6,19,0,5,60,143,85,40,428,122,12,28,74,4130,84,174,166,0,0,0,2288,40,481,0,840,8,0,5,0,153,287,0,41,0,0,95,58,51,33929,5428,"C:\Data\BAS_sjro\Oct_2017\Hermite\HER42-PB\H42-PB1H_XRF\XRF data\L000002.spe",513,6.9,0.018365,-0.022175,0.007089,0.110437,98,0,0,2.26097e+15,"H"
2826,1.48,50685,21078,TRUE,29,36,5,10,50,149,110,11,268,48,0,29,9,2829,36,235,52,0,0,0,2402,0,416,0,591,6,0,0,0,260,219,0,0,0,0,0,0,0,37253,5527,"C:\Data\BAS_sjro\Oct_2017\Hermite\HER42-PB\H42-PB1H_XRF\XRF data\L000016.spe",527,6.86,0.018373,-0.022175,0.007278,0.110437,105,90,28,3.04907e+14,"H"
2840,1.56,52989,21886,TRUE,0,6,14,10,61,162,71,49,251,67,0,42,71,3341,42,199,116,0,0,84,2632,0,296,0,650,0,0,0,0,285,293,0,0,0,0,89,60,0,38101,5848,"C:\Data\BAS_sjro\Oct_2017\Hermite\HER42-PB\H42-PB1H_XRF\XRF data\L000030.spe",541,6.85,0.018369,-0.022175,0.007239,0.110437,149,96,7,0,"H"
2854,1.45,53650,21158,TRUE,0,6,0,20,27,137,96,19,255,99,0,15,66,3902,168,140,108,0,0,104,3070,75,629,0,684,0,0,0,0,220,246,0,22,56,0,196,73,0,37098,6091,"C:\Data\BAS_sjro\Oct_2017\Hermite\HER42-PB\H42-PB1H_XRF\XRF data\L000044.spe",555,6.82,0.018361,-0.022175,0.007667,0.110437,28,0,17,2.34517e+15,"H"
2868,1.29,57309,20446,TRUE,21,0,7,27,46,158,109,43,377,132,11,0,139,11905,134,215,267,0,0,47,2290,140,578,0,806,0,0,0,0,208,289,0,0,0,0,14,0,0,33308,5926,"C:\Data\BAS_sjro\Oct_2017\Hermite\HER42-PB\H42-PB1H_XRF\XRF data\L000058.spe",569,6.78,0.018361,-0.022175,0.007531,0.110437,112,66,12,0,"H"
2885,1.35,53438,21562,TRUE,31,0,0,5,34,165,86,21,252,19,17,20,49,2954,142,159,146,0,0,0,2730,94,514,0,929,0,0,0,0,174,272,0,7,0,0,90,62,0,38253,6154,"C:\Data\BAS_sjro\Oct_2017\Hermite\HER42-PB\H42-PB1H_XRF\XRF data\L000075.spe",586,6.78,0.018356,-0.022175,0.007705,0.110437,59,0,5,1.20299e+14,"H"
2913,1.4,55683,22979,TRUE,18,17,10,27,66,165,96,34,319,51,10,8,56,1291,63,230,80,0,0,44,3255,0,465,0,946,11,0,0,0,336,232,0,0,0,0,143,39,0,41253,6418,"C:\Data\BAS_sjro\Oct_2017\Hermite\HER42-PB\H42-PB1H_XRF\XRF data\L000103.spe",614,6.76,0.018357,-0.022175,0.007617,0.110437,0,29,0,0,"H"
2941,1.29,55471,22495,TRUE,0,0,8,10,30,146,75,29,268,58,0,34,48,1574,0,244,83,0,0,62,2767,201,612,65,849,0,0,0,0,240,309,0,87,41,0,108,145,91,40842,6445,"C:\Data\BAS_sjro\Oct_2017\Hermite\HER42-PB\H42-PB1H_XRF\XRF data\L000131.spe",642,6.8,0.018362,-0.022175,0.007722,0.110437,0,39,12,0,"H"
2969,1.41,54432,21558,TRUE,0,0,0,18,37,153,116,62,285,37,0,27,67,3402,0,208,100,0,0,0,2964,89,525,0,910,0,7,0,10,246,219,0,14,31,0,116,5,71,38599,6114,"C:\Data\BAS_sjro\Oct_2017\Hermite\HER42-PB\H42-PB1H_XRF\XRF data\L000159.spe",670,6.8,0.01835,-0.022175,0.007487,0.110437,0,53,7,0,"H"
2997,1.31,57608,21573,TRUE,0,10,0,15,67,150,93,52,403,124,17,30,76,5084,117,245,95,0,0,90,3757,114,675,0,793,0,10,0,0,309,263,0,61,19,0,128,224,126,37979,6456,"C:\Data\BAS_sjro\Oct_2017\Hermite\HER42-PB\H42-PB1H_XRF\XRF data\L000187.spe",698,6.82,0.018348,-0.022175,0.007742,0.110437,26,17,18,1.69226e+13,"H"
3025,1.46,52228,21118,TRUE,4,16,18,0,35,98,105,16,260,39,0,12,34,2087,151,235,114,0,0,14,2772,33,337,0,807,0,0,5,0,189,249,0,0,0,0,0,0,0,38581,5987,"C:\Data\BAS_sjro\Oct_2017\Hermite\HER42-PB\H42-PB1H_XRF\XRF data\L000215.spe",726,6.87,0.018339,-0.022175,0.007628,0.110437,30,0,17,0,"H"
3053,1.41,52464,21305,TRUE,0,52,24,14,62,133,120,24,275,42,5,0,53,2596,74,186,64,0,0,80,2527,0,411,0,800,0,0,0,0,205,133,0,29,75,0,37,141,0,38319,5919,"C:\Data\BAS_sjro\Oct_2017\Hermite\HER42-PB\H42-PB1H_XRF\XRF data\L000243.spe",754,6.91,0.018338,-0.022175,0.007363,0.110437,64,41,18,5.31301e+14,"H"
3081,1.45,50473,20977,TRUE,40,29,0,6,23,107,88,6,247,77,0,18,51,1985,17,200,113,0,0,23,2477,26,444,0,784,0,0,0,0,244,250,0,39,0,0,0,57,61,37137,5924,"C:\Data\BAS_sjro\Oct_2017\Hermite\HER42-PB\H42-PB1H_XRF\XRF data\L000271.spe",782,6.85,0.018338,-0.022175,0.00736,0.110437,0,68,29,0,"H"
3109,1.27,55069,20290,TRUE,0,13,4,10,41,107,110,46,395,150,0,40,76,8085,99,226,175,0,0,146,2044,24,861,0,904,0,0,0,0,323,215,0,0,34,0,31,16,33,34989,5794,"C:\Data\BAS_sjro\Oct_2017\Hermite\HER42-PB\H42-PB1H_XRF\XRF data\L000299.spe",810,6.74,0.018352,-0.022175,0.007439,0.110437,78,51,12,0,"H"
3137,1.27,53583,20181,TRUE,14,25,9,12,41,130,98,67,376,160,14,0,106,6540,214,250,136,0,0,0,2083,132,551,0,834,0,0,0,0,186,219,53,75,40,24,173,58,40,34845,6078,"C:\Data\BAS_sjro\Oct_2017\Hermite\HER42-PB\H42-PB1H_XRF\XRF data\L000327.spe",838,6.61,0.01835,-0.022175,0.00756,0.110437,0,0,17,0,"H"
3165,1.28,53607,20371,TRUE,11,8,6,8,48,141,66,56,368,74,23,0,86,6281,165,206,186,0,0,45,2360,42,602,0,762,0,0,0,0,185,286,0,58,58,0,92,72,0,35277,5948,"C:\Data\BAS_sjro\Oct_2017\Hermite\HER42-PB\H42-PB1H_XRF\XRF data\L000355.spe",866,6.56,0.018345,-0.022175,0.007637,0.110437,87,0,23,1.61374e+15,"H"
3193,1.37,52482,20834,TRUE,33,10,7,0,54,146,135,46,314,56,0,16,79,2983,79,171,104,0,0,201,2526,0,764,0,821,0,0,0,0,139,193,0,24,57,0,145,0,64,37308,5850,"C:\Data\BAS_sjro\Oct_2017\Hermite\HER42-PB\H42-PB1H_XRF\XRF data\L000383.spe",894,6.7,0.018337,-0.022175,0.00737,0.110437,157,93,32,1.82763e+15,"H"
3215,1.37,53072,20974,TRUE,0,11,0,11,67,154,116,32,364,52,22,29,67,4760,107,180,170,0,0,0,3010,0,476,0,852,0,0,0,0,180,288,0,28,0,0,85,0,0,36172,5839,"C:\Data\BAS_sjro\Oct_2017\Hermite\HER42-PB\H42-PB1I_XRF\XRF data\L000005.spe",1016,6.8,0.018352,-0.022175,0.007383,0.110437,0,11,17,0,"I"
3229,1.27,53833,21307,TRUE,0,15,0,0,35,123,78,33,356,40,0,31,38,3056,65,190,209,0,0,24,2687,13,659,0,901,0,0,0,4,234,317,0,0,30,0,149,179,0,38015,6352,"C:\Data\BAS_sjro\Oct_2017\Hermite\HER42-PB\H42-PB1I_XRF\XRF data\L000019.spe",1030,6.83,0.018338,-0.022175,0.007527,0.110437,0,69,9,0,"I"
3243,1.71,56472,20395,TRUE,0,0,35,15,42,133,108,25,395,62,12,10,51,10181,343,188,108,29,141,125,2672,0,766,0,807,0,0,0,0,233,246,45,60,14,0,0,0,0,33754,5740,"C:\Data\BAS_sjro\Oct_2017\Hermite\HER42-PB\H42-PB1I_XRF\XRF data\L000033.spe",1044,6.86,0.018333,-0.022175,0.007234,0.110437,132,0,0,0,"I"
3257,1.23,54179,20879,TRUE,32,35,12,7,66,132,92,40,501,94,0,24,80,5250,91,169,128,0,0,0,3172,15,707,0,666,0,0,0,0,188,276,0,129,0,0,20,18,0,36174,6015,"C:\Data\BAS_sjro\Oct_2017\Hermite\HER42-PB\H42-PB1I_XRF\XRF data\L000047.spe",1058,6.88,0.018349,-0.022175,0.007396,0.110437,46,38,36,9.53431e+14,"I"
3271,1.22,49912,20104,TRUE,0,0,0,11,23,78,105,57,296,73,0,0,27,1645,0,163,48,0,0,0,2601,30,493,0,653,0,0,0,0,160,271,0,11,0,0,11,100,0,36980,6076,"C:\Data\BAS_sjro\Oct_2017\Hermite\HER42-PB\H42-PB1I_XRF\XRF data\L000061.spe",1072,6.88,0.01835,-0.022175,0.007627,0.110437,0,55,0,0,"I"
3296,1.22,54225,22760,TRUE,0,0,0,0,46,156,73,20,294,21,0,11,77,1044,52,233,153,0,0,0,2454,0,228,0,763,0,0,0,0,256,307,0,24,56,0,0,33,28,41295,6579,"C:\Data\BAS_sjro\Oct_2017\Hermite\HER42-PB\H42-PB1I_XRF\XRF data\L000086.spe",1097,6.94,0.018355,-0.022175,0.00763,0.110437,22,7,0,1.97016e+15,"I"
3324,1.27,52806,20724,TRUE,0,34,11,0,73,127,109,36,404,72,0,9,45,5544,92,152,91,0,0,100,2393,138,416,0,713,0,0,0,0,311,306,0,0,0,0,0,106,74,35608,5842,"C:\Data\BAS_sjro\Oct_2017\Hermite\HER42-PB\H42-PB1I_XRF\XRF data\L000114.spe",1125,6.9,0.018356,-0.022175,0.007394,0.110437,0,32,14,0,"I"
3352,1.31,55058,21941,TRUE,0,5,0,7,57,136,71,28,319,35,0,0,32,3356,25,145,150,0,0,155,2894,36,513,0,761,0,0,0,0,251,265,0,18,0,0,96,85,29,39316,6269,"C:\Data\BAS_sjro\Oct_2017\Hermite\HER42-PB\H42-PB1I_XRF\XRF data\L000142.spe",1153,6.91,0.018355,-0.022175,0.007521,0.110437,4,78,15,1.57302e+15,"I"
3380,1.25,55147,22084,TRUE,0,10,4,18,38,158,98,18,255,25,14,29,47,2892,44,213,26,0,0,101,3126,14,336,0,968,0,0,0,0,308,278,0,11,0,0,24,0,0,39771,6321,"C:\Data\BAS_sjro\Oct_2017\Hermite\HER42-PB\H42-PB1I_XRF\XRF data\L000170.spe",1181,6.91,0.01835,-0.022175,0.007379,0.110437,0,50,9,0,"I"
3408,1.37,54011,22128,TRUE,0,9,0,0,45,159,82,14,339,48,0,5,35,1795,41,224,75,0,0,96,3469,52,422,0,934,0,0,0,0,294,238,0,42,55,0,179,0,0,39040,6180,"C:\Data\BAS_sjro\Oct_2017\Hermite\HER42-PB\H42-PB1I_XRF\XRF data\L000198.spe",1209,6.8,0.018349,-0.022175,0.007374,0.110437,139,0,8,4.5291e+14,"I"
3436,1.36,52988,21414,TRUE,0,0,0,0,23,153,100,35,321,35,6,17,52,1453,100,190,144,0,0,0,2657,0,372,0,1031,0,0,0,0,195,253,0,0,0,0,8,80,0,39408,6243,"C:\Data\BAS_sjro\Oct_2017\Hermite\HER42-PB\H42-PB1I_XRF\XRF data\L000226.spe",1237,6.88,0.018359,-0.022175,0.007692,0.110437,112,0,13,2.80699e+15,"I"
3464,1.32,55527,23042,TRUE,0,0,8,0,47,124,116,13,288,54,20,7,0,1017,77,273,151,0,0,98,2972,66,480,0,862,0,6,0,0,248,333,0,75,17,0,141,26,0,41413,6595,"C:\Data\BAS_sjro\Oct_2017\Hermite\HER42-PB\H42-PB1I_XRF\XRF data\L000254.spe",1265,6.79,0.018346,-0.022175,0.00739,0.110437,0,49,0,0,"I"
3492,1.33,54615,22510,TRUE,14,7,12,0,64,122,81,27,323,55,0,30,29,1893,89,210,163,0,0,0,2782,0,545,0,839,0,0,0,0,215,308,0,85,0,0,119,52,0,40125,6426,"C:\Data\BAS_sjro\Oct_2017\Hermite\HER42-PB\H42-PB1I_XRF\XRF data\L000282.spe",1293,6.81,0.018344,-0.022175,0.007458,0.110437,0,35,24,0,"I"
3520,1.35,51793,20798,TRUE,14,38,0,21,49,126,74,62,412,90,0,0,43,3929,158,196,141,7,0,116,2702,0,672,0,714,0,0,0,0,244,252,24,0,0,0,0,16,0,35558,6135,"C:\Data\BAS_sjro\Oct_2017\Hermite\HER42-PB\H42-PB1I_XRF\XRF data\L000310.spe",1321,6.83,0.018339,-0.022175,0.007309,0.110437,0,5,4,0,"I"
3548,1.35,51566,19539,TRUE,46,20,29,24,53,117,86,68,560,368,13,0,111,6738,164,174,168,0,27,70,2297,114,1105,0,599,0,0,0,0,216,314,0,8,0,0,0,37,0,32027,5941,"C:\Data\BAS_sjro\Oct_2017\Hermite\HER42-PB\H42-PB1I_XRF\XRF data\L000338.spe",1349,6.8,0.018339,-0.022175,0.007148,0.110437,72,0,27,0,"I"
3568,1.47,53077,20032,TRUE,0,18,33,13,42,117,87,77,534,118,6,27,91,5826,177,188,148,0,0,16,2297,47,799,0,758,0,0,0,13,206,280,21,0,0,0,92,88,16,34598,6253,"C:\Data\BAS_sjro\Oct_2017\Hermite\HER42-PB\H42-PB1I_XRF\XRF data\L000358.spe",1369,6.84,0.018345,-0.022175,0.00758,0.110437,91,0,12,0,"I"
3582,1.25,54503,20972,TRUE,0,15,12,10,52,125,63,77,511,123,6,8,99,4173,93,234,100,0,0,169,2597,174,761,0,905,0,0,0,0,300,416,0,0,0,0,146,101,0,37067,6139,"C:\Data\BAS_sjro\Oct_2017\Hermite\HER42-PB\H42-PB1I_XRF\XRF data\L000372.spe",1383,6.87,0.018353,-0.022175,0.007698,0.110437,27,49,9,0,"I"
3596,1.39,51781,19735,TRUE,0,0,0,0,60,127,67,63,560,454,24,37,140,6276,50,181,110,13,0,0,2289,109,952,0,693,0,6,0,10,212,236,0,34,30,0,127,0,0,33142,5779,"C:\Data\BAS_sjro\Oct_2017\Hermite\HER42-PB\H42-PB1I_XRF\XRF data\L000386.spe",1397,6.89,0.018349,-0.022175,0.007383,0.110437,0,129,0,2.5855e+13,"I"
3610,1.17,52612,20330,TRUE,15,24,26,8,66,139,83,61,490,159,21,10,80,5355,136,182,94,0,0,168,2641,71,821,0,1130,0,0,0,0,301,267,0,13,27,0,192,31,0,33897,6039,"C:\Data\BAS_sjro\Oct_2017\Hermite\HER42-PB\H42-PB1I_XRF\XRF data\L000400.spe",1411,6.91,0.018346,-0.022175,0.007449,0.110437,65,19,16,2.12312e+14,"I"
3624,1.36,52395,18160,TRUE,0,8,31,0,71,118,112,103,770,1383,36,8,421,12066,185,159,102,0,0,110,1797,56,947,0,465,0,0,0,7,235,249,0,0,0,0,137,39,135,27395,5250,"C:\Data\BAS_sjro\Oct_2017\Hermite\HER42-PB\H42-PB1I_XRF\XRF data\L000414.spe",1425,6.93,0.018354,-0.022175,0.007398,0.110437,0,56,25,0,"I"
3638,1.37,50530,17160,TRUE,7,22,15,22,54,111,86,83,697,512,20,14,186,11759,107,155,103,48,0,11,1834,147,1027,0,510,0,0,0,0,226,227,0,43,52,0,169,189,156,26795,5143,"C:\Data\BAS_sjro\Oct_2017\Hermite\HER42-PB\H42-PB1I_XRF\XRF data\L000428.spe",1439,6.95,0.018361,-0.022175,0.007467,0.110437,0,47,0,0,"I"
3652,1.28,53450,17759,TRUE,0,39,16,18,77,102,100,153,774,276,15,27,176,14910,150,149,156,95,0,81,1873,60,902,0,597,0,0,0,7,92,234,0,18,0,0,87,7,0,26928,5196,"C:\Data\BAS_sjro\Oct_2017\Hermite\HER42-PB\H42-PB1I_XRF\XRF data\L000442.spe",1453,6.94,0.018357,-0.022175,0.007407,0.110437,135,52,5,0,"I"
3666,1.4,55414,17820,TRUE,0,0,24,0,74,107,140,188,1062,328,18,51,158,15530,79,166,200,51,0,15,1705,83,1054,0,805,0,0,0,7,196,262,0,27,7,0,68,67,0,27727,5156,"C:\Data\BAS_sjro\Oct_2017\Hermite\HER42-PB\H42-PB1I_XRF\XRF data\L000456.spe",1467,6.91,0.01836,-0.022175,0.007538,0.110437,59,119,0,0,"I"
3685,1.31,49090,17160,TRUE,0,25,38,0,56,126,78,115,671,247,23,7,181,10540,150,161,75,0,0,139,1747,187,1225,0,485,0,0,0,0,138,202,0,17,44,26,154,186,40,26981,5026,"C:\Data\BAS_sjro\Oct_2017\Hermite\HER42-PB\H42-1J_XRF\XRF data\L000125.spe",136,6.5,0.018352,-0.022175,0.007293,0.110437,0,43,13,0,"J"
3713,1.24,49218,18256,TRUE,13,20,30,0,72,134,88,50,545,184,0,36,93,8522,23,215,110,11,0,18,1447,112,946,9,717,0,0,0,0,263,283,0,0,0,0,76,79,0,29693,5429,"C:\Data\BAS_sjro\Oct_2017\Hermite\HER42-PB\H42-1J_XRF\XRF data\L000153.spe",164,6.58,0.018361,-0.022175,0.007691,0.110437,0,81,10,3.123e+14,"J"
3741,1.33,45233,16176,TRUE,0,22,10,0,84,136,119,92,639,220,21,0,137,9957,211,152,89,0,0,185,1784,72,1008,0,465,0,0,0,9,216,202,0,0,27,0,57,119,19,24157,5024,"C:\Data\BAS_sjro\Oct_2017\Hermite\HER42-PB\H42-1J_XRF\XRF data\L000181.spe",192,6.59,0.018343,-0.022175,0.007174,0.110437,0,16,11,8.11045e+14,"J"
3769,1.42,56224,20899,TRUE,8,41,14,9,83,115,104,48,347,87,21,4,46,8180,188,230,187,0,0,84,2857,0,423,0,656,0,0,0,0,210,226,0,57,7,0,39,0,0,36108,5777,"C:\Data\BAS_sjro\Oct_2017\Hermite\HER42-PB\H42-1J_XRF\XRF data\L000209.spe",220,6.57,0.018344,-0.022175,0.007371,0.110437,68,34,8,1.8392e+15,"J"
3797,1.18,51740,20214,TRUE,9,0,0,0,29,105,96,11,253,60,21,20,56,3616,11,192,100,24,0,75,2540,0,396,0,662,10,0,0,0,219,202,0,79,45,0,124,0,110,36750,5913,"C:\Data\BAS_sjro\Oct_2017\Hermite\HER42-PB\H42-1J_XRF\XRF data\L000237.spe",248,6.64,0.018359,-0.022175,0.007529,0.110437,12,111,18,0,"J"
3825,1.34,51256,19648,TRUE,33,37,9,0,58,94,107,61,320,56,22,9,36,5426,106,166,68,0,0,73,3010,0,407,0,695,0,6,0,0,275,247,0,0,0,0,160,20,0,34225,5460,"C:\Data\BAS_sjro\Oct_2017\Hermite\HER42-PB\H42-1J_XRF\XRF data\L000265.spe",276,6.64,0.018354,-0.022175,0.007298,0.110437,70,45,14,0,"J"
3853,1.39,46916,18277,TRUE,41,16,9,14,35,82,120,32,351,101,0,0,112,4910,142,149,145,0,0,14,2155,109,801,0,685,0,0,0,15,149,276,0,0,0,0,89,89,0,31001,5274,"C:\Data\BAS_sjro\Oct_2017\Hermite\HER42-PB\H42-1J_XRF\XRF data\L000293.spe",304,6.66,0.018353,-0.022175,0.00714,0.110437,0,0,0,0,"J"
3881,1.19,49899,19125,TRUE,0,29,0,15,30,105,120,60,325,61,23,9,87,4056,47,184,83,20,0,42,2254,0,780,19,814,0,0,0,0,265,231,0,0,0,0,218,84,64,34301,5573,"C:\Data\BAS_sjro\Oct_2017\Hermite\HER42-PB\H42-1J_XRF\XRF data\L000321.spe",332,6.54,0.018363,-0.022175,0.00774,0.110437,0,80,31,2.24559e+15,"J"
3909,1.24,41921,15505,TRUE,0,0,15,0,30,78,108,54,484,160,9,16,91,5946,93,139,98,0,0,23,1647,196,1043,0,669,0,0,0,0,134,254,0,66,0,0,56,131,76,25454,4851,"C:\Data\BAS_sjro\Oct_2017\Hermite\HER42-PB\H42-1J_XRF\XRF data\L000349.spe",360,6.58,0.018356,-0.022175,0.00734,0.110437,0,7,13,2.27015e+13,"J"
3937,1.36,47454,17791,TRUE,0,29,6,11,59,109,109,64,436,114,9,6,97,5030,23,174,144,102,0,51,2215,252,921,0,572,0,0,0,26,180,279,0,0,0,0,188,175,0,30583,5460,"C:\Data\BAS_sjro\Oct_2017\Hermite\HER42-PB\H42-1J_XRF\XRF data\L000377.spe",388,6.64,0.018361,-0.022175,0.007541,0.110437,30,103,0,2.31325e+14,"J"
3965,1.41,49377,18075,TRUE,9,15,30,38,30,102,128,57,487,110,20,24,151,6823,92,212,55,0,0,14,2172,180,1033,0,638,0,0,0,21,196,255,4,29,0,0,98,116,0,30758,5480,"C:\Data\BAS_sjro\Oct_2017\Hermite\HER42-PB\H42-1J_XRF\XRF data\L000405.spe",416,6.69,0.018356,-0.022175,0.007343,0.110437,0,51,27,9.38189e+14,"J"
3993,1.29,51283,19152,TRUE,0,20,17,6,45,88,133,59,397,87,11,0,81,6499,197,138,121,0,0,0,2338,9,516,0,721,0,0,0,6,202,206,0,106,43,0,77,138,0,33032,5884,"C:\Data\BAS_sjro\Oct_2017\Hermite\HER42-PB\H42-1J_XRF\XRF data\L000433.spe",444,6.78,0.018347,-0.022175,0.007411,0.110437,106,0,6,0,"J"
4021,1.57,51440,20142,TRUE,0,5,0,35,79,124,111,62,426,143,41,26,62,5287,73,220,82,0,0,80,2493,0,511,0,680,0,0,0,0,228,238,43,34,0,0,84,0,0,34390,5545,"C:\Data\BAS_sjro\Oct_2017\Hermite\HER42-PB\H42-1J_XRF\XRF data\L000461.spe",472,6.75,0.018357,-0.022175,0.00729,0.110437,338,65,9,0,"J"
4029,1.37,57516,21026,TRUE,40,27,17,0,56,118,118,62,482,163,13,0,63,8382,110,191,111,0,0,131,2701,220,929,0,915,0,0,0,0,168,192,0,0,0,0,124,96,88,36316,5627,"C:\Data\BAS_sjro\Oct_2017\Hermite\HER42-PB\H42-1J_XRF\XRF data\L000469.spe",480,6.8,0.018363,-0.022175,0.007135,0.110437,56,0,15,0,"J"